sample,timestamp,gyro_x,gyro_y,gyro_z
19500,2025-09-16T15:06:09.418,-0.37,0.85,-0.49
19501,2025-09-16T15:06:09.428,-0.37,0.79,-0.49
19502,2025-09-16T15:06:09.439,-0.49,0.85,-0.49
19503,2025-09-16T15:06:09.448,-0.49,0.79,-0.49
19504,2025-09-16T15:06:09.458,-0.43,0.79,-0.43
19505,2025-09-16T15:06:09.467,-0.37,0.79,-0.37
19506,2025-09-16T15:06:09.477,-0.37,0.85,-0.37
19507,2025-09-16T15:06:09.487,-0.31,0.79,-0.31
19508,2025-09-16T15:06:09.497,-0.31,0.73,-0.31
19509,2025-09-16T15:06:09.507,-0.24,0.73,-0.24
19510,2025-09-16T15:06:09.517,-0.24,0.73,-0.24
19511,2025-09-16T15:06:09.527,-0.24,0.73,-0.24
19512,2025-09-16T15:06:09.537,-0.24,0.73,-0.31
19513,2025-09-16T15:06:09.546,-0.24,0.73,-0.37
19514,2025-09-16T15:06:09.556,-0.31,0.79,-0.37
19515,2025-09-16T15:06:09.566,-0.37,0.73,-0.43
19516,2025-09-16T15:06:09.576,-0.31,0.79,-0.49
19517,2025-09-16T15:06:09.585,-0.43,0.85,-0.49
19518,2025-09-16T15:06:09.596,-0.49,0.79,-0.49
19519,2025-09-16T15:06:09.605,-0.43,0.79,-0.55
19520,2025-09-16T15:06:09.615,-0.43,0.85,-0.49
19521,2025-09-16T15:06:09.624,-0.43,0.79,-0.43
19522,2025-09-16T15:06:09.634,-0.43,0.79,-0.43
19523,2025-09-16T15:06:09.644,-0.37,0.85,-0.37
19524,2025-09-16T15:06:09.654,-0.31,0.85,-0.37
19525,2025-09-16T15:06:09.663,-0.31,0.79,-0.31
19526,2025-09-16T15:06:09.673,-0.24,0.79,-0.24
19527,2025-09-16T15:06:09.683,-0.24,0.73,-0.24
19528,2025-09-16T15:06:09.693,-0.18,0.73,-0.24
19529,2025-09-16T15:06:09.702,-0.24,0.73,-0.24
19530,2025-09-16T15:06:09.712,-0.24,0.73,-0.24
19531,2025-09-16T15:06:09.722,-0.31,0.73,-0.37
19532,2025-09-16T15:06:09.732,-0.31,0.73,-0.37
19533,2025-09-16T15:06:09.742,-0.37,0.73,-0.37
19534,2025-09-16T15:06:09.752,-0.43,0.79,-0.43
19535,2025-09-16T15:06:09.762,-0.49,0.79,-0.43
19536,2025-09-16T15:06:09.771,-0.49,0.85,-0.43
19537,2025-09-16T15:06:09.781,-0.43,0.85,-0.43
19538,2025-09-16T15:06:09.791,-0.43,0.85,-0.37
19539,2025-09-16T15:06:09.800,-0.37,0.85,-0.37
19540,2025-09-16T15:06:09.810,-0.37,0.85,-0.31
19541,2025-09-16T15:06:09.821,-0.31,0.85,-0.31
19542,2025-09-16T15:06:09.830,-0.31,0.85,-0.31
19543,2025-09-16T15:06:09.840,0.31,0.79,-0.24
19544,2025-09-16T15:06:09.850,6.29,0.12,0.31
19545,2025-09-16T15:06:09.860,7.32,0.12,0.55
19546,2025-09-16T15:06:09.869,3.91,2.14,2.99
19547,2025-09-16T15:06:09.879,13.37,-1.95,5.98
19548,2025-09-16T15:06:09.889,13.24,-7.69,12.21
19549,2025-09-16T15:06:09.899,25.45,-11.41,17.27
19550,2025-09-16T15:06:09.908,24.48,-8.91,19.1
19551,2025-09-16T15:06:09.918,14.95,-4.88,14.89
19552,2025-09-16T15:06:09.928,9.89,-4.82,13.24
19553,2025-09-16T15:06:09.938,17.33,-3.85,12.88
19554,2025-09-16T15:06:09.948,9.95,-3.11,10.56
19555,2025-09-16T15:06:09.958,9.58,-2.32,9.89
19556,2025-09-16T15:06:09.967,5.8,-2.08,8.54
19557,2025-09-16T15:06:09.977,9.4,-1.16,8.73
19558,2025-09-16T15:06:09.987,7.45,0.0,8.36
19559,2025-09-16T15:06:09.996,6.9,-0.55,6.16
19560,2025-09-16T15:06:10.006,2.2,-1.22,5.68
19561,2025-09-16T15:06:10.016,0.0,0.24,7.57
19562,2025-09-16T15:06:10.025,-1.22,0.61,8.12
19563,2025-09-16T15:06:10.035,5.62,-0.31,2.01
19564,2025-09-16T15:06:10.045,1.04,-0.18,1.1
19565,2025-09-16T15:06:10.054,0.0,0.06,0.67
19566,2025-09-16T15:06:10.064,-3.17,0.55,0.0
19567,2025-09-16T15:06:10.074,-5.8,0.73,-0.73
19568,2025-09-16T15:06:10.084,-9.16,0.79,-1.71
19569,2025-09-16T15:06:10.094,-9.4,1.04,-2.08
19570,2025-09-16T15:06:10.104,-8.18,1.1,-2.08
19571,2025-09-16T15:06:10.113,-8.48,1.28,-2.44
19572,2025-09-16T15:06:10.124,-8.67,1.4,-3.36
19573,2025-09-16T15:06:10.134,-3.3,1.16,-2.56
19574,2025-09-16T15:06:10.143,11.66,-0.79,0.67
19575,2025-09-16T15:06:10.153,-4.21,1.28,-0.73
19576,2025-09-16T15:06:10.163,0.24,0.67,-0.31
19577,2025-09-16T15:06:10.173,2.81,0.37,-0.12
19578,2025-09-16T15:06:10.182,5.68,0.06,0.24
19579,2025-09-16T15:06:10.192,0.85,0.67,-0.24
19580,2025-09-16T15:06:10.202,-2.01,1.04,-0.49
19581,2025-09-16T15:06:10.212,7.32,-0.18,0.31
19582,2025-09-16T15:06:10.222,-3.48,1.22,-0.61
19583,2025-09-16T15:06:10.232,-6.47,1.59,-0.92
19584,2025-09-16T15:06:10.242,-10.8,1.95,-1.28
19585,2025-09-16T15:06:10.251,-12.76,1.16,-1.16
19586,2025-09-16T15:06:10.261,-1.95,0.24,0.0
19587,2025-09-16T15:06:10.271,2.26,0.43,-0.06
19588,2025-09-16T15:06:10.281,0.06,0.79,-0.31
19589,2025-09-16T15:06:10.290,-5.49,1.46,-0.85
19590,2025-09-16T15:06:10.300,-7.08,1.59,-1.04
19591,2025-09-16T15:06:10.309,-17.52,1.77,-2.2
19592,2025-09-16T15:06:10.320,-23.99,0.55,-3.3
19593,2025-09-16T15:06:10.330,8.85,-1.28,-0.06
19594,2025-09-16T15:06:10.339,34.73,-3.54,3.11
19595,2025-09-16T15:06:10.349,20.51,0.73,2.44
19596,2025-09-16T15:06:10.359,27.95,0.43,3.78
19597,2025-09-16T15:06:10.369,17.88,1.04,5.0
19598,2025-09-16T15:06:10.378,14.16,0.37,3.91
19599,2025-09-16T15:06:10.388,9.09,0.18,3.17
19600,2025-09-16T15:06:10.398,6.1,0.55,2.81
19601,2025-09-16T15:06:10.408,7.63,-0.12,3.11
19602,2025-09-16T15:06:10.418,5.25,0.12,3.66
19603,2025-09-16T15:06:10.427,4.33,0.31,2.38
19604,2025-09-16T15:06:10.437,-0.24,0.73,0.79
19605,2025-09-16T15:06:10.447,-0.43,0.73,-0.06
19606,2025-09-16T15:06:10.456,0.06,0.67,-0.31
19607,2025-09-16T15:06:10.466,-1.1,0.92,-0.55
19608,2025-09-16T15:06:10.476,0.67,0.61,-0.18
19609,2025-09-16T15:06:10.486,-0.24,0.79,-0.37
19610,2025-09-16T15:06:10.495,0.73,0.67,-0.24
19611,2025-09-16T15:06:10.505,0.18,0.79,-0.18
19612,2025-09-16T15:06:10.515,0.49,0.79,-0.12
19613,2025-09-16T15:06:10.525,0.12,0.85,-0.18
19614,2025-09-16T15:06:10.535,-0.06,0.79,-0.24
19615,2025-09-16T15:06:10.545,-0.24,0.85,-0.18
19616,2025-09-16T15:06:10.555,0.06,0.85,-0.31
19617,2025-09-16T15:06:10.564,-0.43,0.85,-0.24
19618,2025-09-16T15:06:10.574,0.06,0.73,-0.37
19619,2025-09-16T15:06:10.584,-0.49,0.79,-0.31
19620,2025-09-16T15:06:10.594,0.49,0.73,-0.31
19621,2025-09-16T15:06:10.603,-0.49,0.85,-0.31
19622,2025-09-16T15:06:10.613,0.31,0.73,-0.31
19623,2025-09-16T15:06:10.623,-0.31,0.79,-0.24
19624,2025-09-16T15:06:10.632,-0.06,0.79,-0.24
19625,2025-09-16T15:06:10.643,-0.31,0.79,-0.18
19626,2025-09-16T15:06:10.652,0.06,0.79,-0.18
19627,2025-09-16T15:06:10.662,-0.49,0.85,-0.24
19628,2025-09-16T15:06:10.672,0.18,0.79,-0.06
19629,2025-09-16T15:06:10.682,0.06,0.85,-0.18
19630,2025-09-16T15:06:10.691,-0.79,0.85,-0.24
19631,2025-09-16T15:06:10.701,-1.4,0.92,-0.43
19632,2025-09-16T15:06:10.711,1.28,0.55,0.73
19633,2025-09-16T15:06:10.721,6.1,0.0,0.92
19634,2025-09-16T15:06:10.730,-1.89,0.92,0.43
19635,2025-09-16T15:06:10.740,1.89,0.92,-0.18
19636,2025-09-16T15:06:10.750,-0.92,1.22,0.49
19637,2025-09-16T15:06:10.760,1.53,1.22,0.31
19638,2025-09-16T15:06:10.770,-0.49,1.1,-0.06
19639,2025-09-16T15:06:10.779,-1.65,1.22,-0.92
19640,2025-09-16T15:06:10.789,-0.61,1.04,-0.31
19641,2025-09-16T15:06:10.800,2.2,0.73,-0.55
19642,2025-09-16T15:06:10.809,-0.79,0.98,-0.49
19643,2025-09-16T15:06:10.819,1.46,0.73,-0.49
19644,2025-09-16T15:06:10.828,0.37,0.79,-0.31
19645,2025-09-16T15:06:10.838,-0.67,0.98,-0.43
19646,2025-09-16T15:06:10.848,-0.43,0.92,-0.31
19647,2025-09-16T15:06:10.857,-0.92,0.98,-0.31
19648,2025-09-16T15:06:10.867,-0.73,0.98,-0.31
19649,2025-09-16T15:06:10.877,-0.06,0.92,-0.18
19650,2025-09-16T15:06:10.887,0.37,0.85,-0.24
19651,2025-09-16T15:06:10.897,0.43,0.85,-0.31
19652,2025-09-16T15:06:10.907,-0.06,0.92,-0.43
19653,2025-09-16T15:06:10.916,-0.55,0.92,-0.55
19654,2025-09-16T15:06:10.927,-0.92,0.85,-0.55
19655,2025-09-16T15:06:10.936,-0.18,0.67,-0.61
19656,2025-09-16T15:06:10.946,-1.89,0.92,-0.67
19657,2025-09-16T15:06:10.957,0.43,0.61,-0.49
19658,2025-09-16T15:06:10.966,-0.43,0.67,-0.43
19659,2025-09-16T15:06:10.976,-0.24,0.79,-0.49
19660,2025-09-16T15:06:10.986,0.31,0.79,-0.24
19661,2025-09-16T15:06:10.996,0.43,0.79,-0.18
19662,2025-09-16T15:06:11.005,-0.24,0.92,-0.18
19663,2025-09-16T15:06:11.015,0.06,0.92,-0.18
19664,2025-09-16T15:06:11.024,-0.37,0.92,-0.12
19665,2025-09-16T15:06:11.035,-0.37,0.92,-0.18
19666,2025-09-16T15:06:11.044,-0.61,0.92,-0.24
19667,2025-09-16T15:06:11.054,-0.12,0.92,-0.37
19668,2025-09-16T15:06:11.064,-0.61,0.92,-0.37
19669,2025-09-16T15:06:11.074,0.06,0.79,-0.43
19670,2025-09-16T15:06:11.084,-0.12,0.79,-0.43
19671,2025-09-16T15:06:11.093,-0.31,0.79,-0.55
19672,2025-09-16T15:06:11.103,-0.73,0.79,-0.55
19673,2025-09-16T15:06:11.112,-0.31,0.79,-0.55
19674,2025-09-16T15:06:11.122,-0.55,0.79,-0.49
19675,2025-09-16T15:06:11.132,-0.61,0.85,-0.49
19676,2025-09-16T15:06:11.142,0.0,0.85,-0.31
19677,2025-09-16T15:06:11.152,0.43,0.85,-0.18
19678,2025-09-16T15:06:11.162,-0.06,0.92,-0.18
19679,2025-09-16T15:06:11.171,0.12,0.92,-0.18
19680,2025-09-16T15:06:11.181,-0.43,0.92,-0.18
19681,2025-09-16T15:06:11.191,-0.43,0.85,-0.24
19682,2025-09-16T15:06:11.200,-1.1,0.92,-0.43
19683,2025-09-16T15:06:11.210,-0.98,0.85,-0.43
19684,2025-09-16T15:06:11.220,0.73,0.55,-0.24
19685,2025-09-16T15:06:11.229,-0.31,0.61,-0.61
19686,2025-09-16T15:06:11.239,-1.04,0.67,-0.49
19687,2025-09-16T15:06:11.249,1.46,0.37,-0.37
19688,2025-09-16T15:06:11.259,-0.98,0.61,-0.49
19689,2025-09-16T15:06:11.269,-0.67,0.61,-0.55
19690,2025-09-16T15:06:11.279,-0.06,0.61,-0.37
19691,2025-09-16T15:06:11.288,-0.73,0.73,-0.43
19692,2025-09-16T15:06:11.298,-0.37,0.73,-0.31
19693,2025-09-16T15:06:11.308,0.24,0.67,-0.18
19694,2025-09-16T15:06:11.318,-0.49,0.79,-0.18
19695,2025-09-16T15:06:11.327,0.0,0.73,-0.12
19696,2025-09-16T15:06:11.337,-0.12,0.73,-0.12
19697,2025-09-16T15:06:11.347,-0.43,0.79,-0.18
19698,2025-09-16T15:06:11.357,0.12,0.73,-0.18
19699,2025-09-16T15:06:11.367,-0.06,0.73,-0.31
19700,2025-09-16T15:06:11.376,-0.67,0.73,-0.43
19701,2025-09-16T15:06:11.386,-0.18,0.73,-0.49
19702,2025-09-16T15:06:11.396,-0.37,0.73,-0.49
19703,2025-09-16T15:06:11.406,-0.79,0.79,-0.61
19704,2025-09-16T15:06:11.416,-0.55,0.79,-0.55
19705,2025-09-16T15:06:11.426,-0.37,0.85,-0.61
19706,2025-09-16T15:06:11.436,-0.61,0.85,-0.55
19707,2025-09-16T15:06:11.445,-0.49,0.85,-0.55
19708,2025-09-16T15:06:11.455,-0.06,0.79,-0.43
19709,2025-09-16T15:06:11.465,-0.37,0.79,-0.43
19710,2025-09-16T15:06:11.475,-0.49,0.79,-0.37
19711,2025-09-16T15:06:11.484,-0.18,0.79,-0.31
19712,2025-09-16T15:06:11.494,-0.24,0.85,-0.31
19713,2025-09-16T15:06:11.504,-0.43,0.85,-0.24
19714,2025-09-16T15:06:11.514,0.24,0.79,-0.18
19715,2025-09-16T15:06:11.523,0.12,0.79,-0.18
19716,2025-09-16T15:06:11.533,0.06,0.73,-0.24
19717,2025-09-16T15:06:11.543,-0.24,0.79,-0.24
19718,2025-09-16T15:06:11.553,0.24,0.73,-0.24
19719,2025-09-16T15:06:11.562,-0.98,0.85,-0.43
19720,2025-09-16T15:06:11.572,-1.16,0.85,-0.55
19721,2025-09-16T15:06:11.582,-0.73,0.92,-0.49
19722,2025-09-16T15:06:11.591,-0.67,0.92,-0.55
19723,2025-09-16T15:06:11.601,-0.49,0.98,-0.55
19724,2025-09-16T15:06:11.613,0.24,0.85,-0.49
19725,2025-09-16T15:06:11.621,-0.12,0.92,-0.49
19726,2025-09-16T15:06:11.631,-0.12,0.92,-0.49
19727,2025-09-16T15:06:11.641,-0.43,0.85,-0.43
19728,2025-09-16T15:06:11.651,-0.61,0.85,-0.43
19729,2025-09-16T15:06:11.661,-0.73,0.79,-0.37
19730,2025-09-16T15:06:11.670,-0.55,0.73,-0.37
19731,2025-09-16T15:06:11.680,-0.37,0.67,-0.31
19732,2025-09-16T15:06:11.690,0.06,0.61,-0.24
19733,2025-09-16T15:06:11.699,0.0,0.61,-0.18
19734,2025-09-16T15:06:11.709,0.31,0.55,-0.12
19735,2025-09-16T15:06:11.719,0.43,0.55,-0.06
19736,2025-09-16T15:06:11.729,-0.18,0.61,-0.12
19737,2025-09-16T15:06:11.738,-0.67,0.67,-0.18
19738,2025-09-16T15:06:11.748,-0.61,0.67,-0.18
19739,2025-09-16T15:06:11.759,-0.85,0.73,-0.18
19740,2025-09-16T15:06:11.769,-0.49,0.73,-0.24
19741,2025-09-16T15:06:11.778,-0.49,0.73,-0.31
19742,2025-09-16T15:06:11.788,-0.06,0.73,-0.31
19743,2025-09-16T15:06:11.798,0.06,0.73,-0.31
19744,2025-09-16T15:06:11.807,-0.06,0.79,-0.37
19745,2025-09-16T15:06:11.818,0.06,0.73,-0.43
19746,2025-09-16T15:06:11.827,-0.43,0.79,-0.43
19747,2025-09-16T15:06:11.837,-0.37,0.79,-0.43
19748,2025-09-16T15:06:11.847,-0.73,0.79,-0.43
19749,2025-09-16T15:06:11.856,-0.67,0.79,-0.43
19750,2025-09-16T15:06:11.866,-0.37,0.79,-0.37
19751,2025-09-16T15:06:11.876,-0.24,0.79,-0.37
19752,2025-09-16T15:06:11.886,0.0,0.79,-0.24
19753,2025-09-16T15:06:11.896,0.24,0.79,-0.24
19754,2025-09-16T15:06:11.905,-0.31,0.79,-0.24
19755,2025-09-16T15:06:11.915,0.06,0.79,-0.24
19756,2025-09-16T15:06:11.925,-0.49,0.85,-0.31
19757,2025-09-16T15:06:11.934,-0.61,0.85,-0.31
19758,2025-09-16T15:06:11.944,-0.43,0.79,-0.31
19759,2025-09-16T15:06:11.954,-0.37,0.79,-0.43
19760,2025-09-16T15:06:11.964,-0.49,0.85,-0.37
19761,2025-09-16T15:06:11.974,0.31,0.79,-0.49
19762,2025-09-16T15:06:11.984,-0.67,0.92,-0.55
19763,2025-09-16T15:06:11.993,-0.24,0.85,-0.61
19764,2025-09-16T15:06:12.003,-0.73,0.92,-0.61
19765,2025-09-16T15:06:12.013,-0.79,0.92,-0.55
19766,2025-09-16T15:06:12.023,-0.37,0.85,-0.49
19767,2025-09-16T15:06:12.033,-0.61,0.85,-0.37
19768,2025-09-16T15:06:12.043,0.0,0.79,-0.24
19769,2025-09-16T15:06:12.052,0.43,0.79,-0.06
19770,2025-09-16T15:06:12.062,0.12,0.92,-0.12
19771,2025-09-16T15:06:12.072,0.0,0.98,-0.12
19772,2025-09-16T15:06:12.082,0.24,0.92,-0.12
19773,2025-09-16T15:06:12.091,-0.31,1.04,-0.24
19774,2025-09-16T15:06:12.102,-0.67,1.1,-0.37
19775,2025-09-16T15:06:12.111,-0.37,1.04,-0.43
19776,2025-09-16T15:06:12.121,-0.61,0.98,-0.55
19777,2025-09-16T15:06:12.130,-0.79,0.98,-0.67
19778,2025-09-16T15:06:12.140,-0.55,0.92,-0.73
19779,2025-09-16T15:06:12.150,-0.67,0.85,-0.85
19780,2025-09-16T15:06:12.160,-0.85,0.92,-0.92
19781,2025-09-16T15:06:12.170,-0.67,0.85,-0.85
19782,2025-09-16T15:06:12.179,-0.31,0.85,-0.79
19783,2025-09-16T15:06:12.189,-0.37,0.85,-0.67
19784,2025-09-16T15:06:12.199,-0.31,0.85,-0.49
19785,2025-09-16T15:06:12.208,-0.12,0.79,-0.31
19786,2025-09-16T15:06:12.218,0.12,0.79,-0.06
19787,2025-09-16T15:06:12.228,-0.18,0.73,0.06
19788,2025-09-16T15:06:12.238,0.12,0.73,0.18
19789,2025-09-16T15:06:12.248,0.24,0.67,0.24
19790,2025-09-16T15:06:12.258,0.31,0.61,0.24
19791,2025-09-16T15:06:12.268,0.06,0.61,0.18
19792,2025-09-16T15:06:12.277,0.37,0.61,0.12
19793,2025-09-16T15:06:12.288,-0.49,0.73,-0.12
19794,2025-09-16T15:06:12.298,-0.85,0.79,-0.43
19795,2025-09-16T15:06:12.307,-1.04,0.85,-0.55
19796,2025-09-16T15:06:12.317,-1.04,0.98,-0.55
19797,2025-09-16T15:06:12.326,-0.49,0.98,0.18
19798,2025-09-16T15:06:12.336,2.69,0.61,1.34
19799,2025-09-16T15:06:12.346,4.27,0.37,1.77
19800,2025-09-16T15:06:12.356,2.81,0.49,0.55
19801,2025-09-16T15:06:12.366,-1.46,0.85,-0.85
19802,2025-09-16T15:06:12.376,-0.98,0.79,-0.85
19803,2025-09-16T15:06:12.385,0.98,0.49,-0.61
19804,2025-09-16T15:06:12.395,-1.34,0.73,-0.49
19805,2025-09-16T15:06:12.405,-0.43,0.67,-0.37
19806,2025-09-16T15:06:12.415,0.0,0.67,-0.12
19807,2025-09-16T15:06:12.425,-0.12,0.73,-0.06
19808,2025-09-16T15:06:12.435,0.18,0.67,0.06
19809,2025-09-16T15:06:12.444,0.49,0.61,0.0
19810,2025-09-16T15:06:12.454,0.0,0.61,0.0
19811,2025-09-16T15:06:12.463,0.18,0.61,-0.06
19812,2025-09-16T15:06:12.473,-0.06,0.61,-0.12
19813,2025-09-16T15:06:12.483,-0.61,0.67,-0.37
19814,2025-09-16T15:06:12.493,-1.04,0.67,-0.43
19815,2025-09-16T15:06:12.502,-0.73,0.73,-0.55
19816,2025-09-16T15:06:12.512,-1.04,0.79,-0.55
19817,2025-09-16T15:06:12.522,-0.43,0.85,-0.55
19818,2025-09-16T15:06:12.532,-0.18,0.85,-0.55
19819,2025-09-16T15:06:12.542,-0.37,0.92,-0.61
19820,2025-09-16T15:06:12.552,-0.43,0.98,-0.55
19821,2025-09-16T15:06:12.561,-0.55,0.92,-0.55
19822,2025-09-16T15:06:12.571,-0.79,0.92,-0.49
19823,2025-09-16T15:06:12.581,-0.18,0.79,-0.37
19824,2025-09-16T15:06:12.591,-0.06,0.79,-0.37
19825,2025-09-16T15:06:12.601,-0.12,0.79,-0.37
19826,2025-09-16T15:06:12.610,0.24,0.73,-0.31
19827,2025-09-16T15:06:12.620,0.24,0.73,-0.31
19828,2025-09-16T15:06:12.630,-0.06,0.73,-0.31
19829,2025-09-16T15:06:12.639,-0.31,0.73,-0.37
19830,2025-09-16T15:06:12.649,-0.49,0.73,-0.43
19831,2025-09-16T15:06:12.659,-0.61,0.73,-0.31
19832,2025-09-16T15:06:12.669,-0.43,0.73,-0.31
19833,2025-09-16T15:06:12.679,-0.43,0.79,-0.37
19834,2025-09-16T15:06:12.689,-0.55,0.85,-0.37
19835,2025-09-16T15:06:12.698,-0.24,0.92,-0.31
19836,2025-09-16T15:06:12.708,-0.18,0.92,-0.37
19837,2025-09-16T15:06:12.718,-0.73,0.98,-0.43
19838,2025-09-16T15:06:12.728,-0.43,0.98,-0.43
19839,2025-09-16T15:06:12.738,-0.55,0.98,-0.43
19840,2025-09-16T15:06:12.748,-0.55,0.98,-0.43
19841,2025-09-16T15:06:12.758,-0.37,0.92,-0.43
19842,2025-09-16T15:06:12.768,-0.12,0.85,-0.43
19843,2025-09-16T15:06:12.777,-0.18,0.79,-0.49
19844,2025-09-16T15:06:12.787,-0.12,0.79,-0.49
19845,2025-09-16T15:06:12.797,-0.18,0.79,-0.49
19846,2025-09-16T15:06:12.807,-0.06,0.73,-0.43
19847,2025-09-16T15:06:12.816,-0.43,0.73,-0.43
19848,2025-09-16T15:06:12.825,-0.37,0.73,-0.31
19849,2025-09-16T15:06:12.835,-0.12,0.67,-0.31
19850,2025-09-16T15:06:12.845,-0.55,0.79,-0.24
19851,2025-09-16T15:06:12.855,-0.37,0.85,-0.24
19852,2025-09-16T15:06:12.865,-0.37,0.92,-0.18
19853,2025-09-16T15:06:12.874,-0.49,0.92,-0.24
19854,2025-09-16T15:06:12.884,-0.49,0.92,-0.24
19855,2025-09-16T15:06:12.894,-0.24,0.92,-0.24
19856,2025-09-16T15:06:12.904,-0.55,0.92,-0.31
19857,2025-09-16T15:06:12.914,-0.31,0.85,-0.43
19858,2025-09-16T15:06:12.924,-0.18,0.85,-0.43
19859,2025-09-16T15:06:12.933,-0.49,0.85,-0.55
19860,2025-09-16T15:06:12.943,-0.18,0.79,-0.55
19861,2025-09-16T15:06:12.953,-0.37,0.79,-0.61
19862,2025-09-16T15:06:12.962,-0.67,0.85,-0.67
19863,2025-09-16T15:06:12.972,-0.61,0.79,-0.61
19864,2025-09-16T15:06:12.982,-0.37,0.79,-0.55
19865,2025-09-16T15:06:12.992,-0.61,0.79,-0.55
19866,2025-09-16T15:06:13.002,-0.37,0.79,-0.37
19867,2025-09-16T15:06:13.011,0.06,0.73,-0.18
19868,2025-09-16T15:06:13.021,0.0,0.73,-0.12
19869,2025-09-16T15:06:13.031,0.49,0.73,0.0
19870,2025-09-16T15:06:13.041,0.43,0.73,0.06
19871,2025-09-16T15:06:13.051,-0.43,0.79,-0.06
19872,2025-09-16T15:06:13.060,-0.24,0.79,-0.06
19873,2025-09-16T15:06:13.070,-0.73,0.85,-0.18
19874,2025-09-16T15:06:13.080,-0.85,0.92,-0.37
19875,2025-09-16T15:06:13.090,-0.55,0.85,-0.43
19876,2025-09-16T15:06:13.099,-0.55,0.85,-0.49
19877,2025-09-16T15:06:13.110,-0.37,0.79,-0.55
19878,2025-09-16T15:06:13.119,0.37,0.67,-0.55
19879,2025-09-16T15:06:13.129,-1.04,0.79,-1.04
19880,2025-09-16T15:06:13.139,-1.71,0.79,-0.67
19881,2025-09-16T15:06:13.148,1.65,0.43,-0.55
19882,2025-09-16T15:06:13.159,-2.32,0.92,-0.67
19883,2025-09-16T15:06:13.169,-0.31,0.73,-0.73
19884,2025-09-16T15:06:13.178,-0.73,0.79,-0.37
19885,2025-09-16T15:06:13.188,0.61,0.73,-0.31
19886,2025-09-16T15:06:13.198,0.18,0.79,0.06
19887,2025-09-16T15:06:13.207,1.53,0.55,0.12
19888,2025-09-16T15:06:13.218,-0.31,0.79,0.06
19889,2025-09-16T15:06:13.227,-0.37,0.73,0.0
19890,2025-09-16T15:06:13.236,-0.06,0.73,0.12
19891,2025-09-16T15:06:13.246,-0.37,0.79,-0.06
19892,2025-09-16T15:06:13.256,-1.1,0.92,-0.18
19893,2025-09-16T15:06:13.266,-0.24,0.92,-0.31
19894,2025-09-16T15:06:13.276,-1.04,1.04,-0.43
19895,2025-09-16T15:06:13.286,-0.92,1.04,-0.67
19896,2025-09-16T15:06:13.296,-0.49,0.98,-0.67
19897,2025-09-16T15:06:13.305,-0.37,0.92,-0.73
19898,2025-09-16T15:06:13.316,-0.43,0.85,-0.73
19899,2025-09-16T15:06:13.325,-0.12,0.79,-0.79
19900,2025-09-16T15:06:13.335,-0.67,0.79,-0.79
19901,2025-09-16T15:06:13.345,-0.73,0.79,-0.79
19902,2025-09-16T15:06:13.355,-0.55,0.79,-0.67
19903,2025-09-16T15:06:13.365,-0.31,0.79,-0.49
19904,2025-09-16T15:06:13.374,0.12,0.73,-0.31
19905,2025-09-16T15:06:13.384,0.43,0.73,-0.24
19906,2025-09-16T15:06:13.394,0.31,0.73,-0.18
19907,2025-09-16T15:06:13.403,0.0,0.79,-0.12
19908,2025-09-16T15:06:13.413,-0.06,0.73,-0.06
19909,2025-09-16T15:06:13.423,-0.49,0.85,-0.06
19910,2025-09-16T15:06:13.432,-0.85,0.85,-0.12
19911,2025-09-16T15:06:13.442,-0.73,0.92,-0.18
19912,2025-09-16T15:06:13.452,-0.67,0.85,-0.31
19913,2025-09-16T15:06:13.462,-0.61,0.85,-0.37
19914,2025-09-16T15:06:13.472,-0.37,0.79,-0.37
19915,2025-09-16T15:06:13.481,-0.18,0.73,-0.49
19916,2025-09-16T15:06:13.491,-0.43,0.73,-0.61
19917,2025-09-16T15:06:13.501,-0.37,0.73,-0.61
19918,2025-09-16T15:06:13.510,-0.24,0.79,-0.61
19919,2025-09-16T15:06:13.521,-0.61,0.85,-0.67
19920,2025-09-16T15:06:13.530,-0.61,0.79,-0.61
19921,2025-09-16T15:06:13.540,-0.43,0.79,-0.61
19922,2025-09-16T15:06:13.550,-0.55,0.85,-0.61
19923,2025-09-16T15:06:13.560,-0.31,0.79,-0.55
19924,2025-09-16T15:06:13.570,-0.06,0.73,-0.43
19925,2025-09-16T15:06:13.580,-0.06,0.73,-0.37
19926,2025-09-16T15:06:13.589,-0.06,0.73,-0.31
19927,2025-09-16T15:06:13.598,-0.12,0.67,-0.24
19928,2025-09-16T15:06:13.609,-0.31,0.67,-0.24
19929,2025-09-16T15:06:13.619,-0.37,0.73,-0.24
19930,2025-09-16T15:06:13.629,-0.49,0.73,-0.18
19931,2025-09-16T15:06:13.639,-0.37,0.79,-0.18
19932,2025-09-16T15:06:13.648,-0.43,0.79,-0.24
19933,2025-09-16T15:06:13.659,-0.49,0.85,-0.24
19934,2025-09-16T15:06:13.668,-0.37,0.85,-0.31
19935,2025-09-16T15:06:13.678,-0.37,0.92,-0.31
19936,2025-09-16T15:06:13.688,-0.43,0.92,-0.37
19937,2025-09-16T15:06:13.698,-0.31,0.85,-0.43
19938,2025-09-16T15:06:13.707,-0.31,0.85,-0.49
19939,2025-09-16T15:06:13.717,-0.31,0.79,-0.49
19940,2025-09-16T15:06:13.727,-0.24,0.79,-0.49
19941,2025-09-16T15:06:13.737,-0.31,0.79,-0.49
19942,2025-09-16T15:06:13.746,-0.31,0.73,-0.43
19943,2025-09-16T15:06:13.756,-0.31,0.73,-0.43
19944,2025-09-16T15:06:13.766,-0.31,0.73,-0.37
19945,2025-09-16T15:06:13.776,-0.24,0.73,-0.37
19946,2025-09-16T15:06:13.786,-0.18,0.79,-0.31
19947,2025-09-16T15:06:13.795,-0.24,0.79,-0.31
19948,2025-09-16T15:06:13.805,-0.12,0.79,-0.31
19949,2025-09-16T15:06:13.814,-0.24,0.85,-0.31
19950,2025-09-16T15:06:13.825,-0.18,0.85,-0.37
19951,2025-09-16T15:06:13.834,-0.49,0.85,-0.37
19952,2025-09-16T15:06:13.844,-0.49,0.92,-0.37
19953,2025-09-16T15:06:13.854,-0.61,0.85,-0.43
19954,2025-09-16T15:06:13.863,-0.49,0.92,-0.55
19955,2025-09-16T15:06:13.874,-0.55,0.92,-0.55
19956,2025-09-16T15:06:13.883,-0.43,0.92,-0.55
19957,2025-09-16T15:06:13.893,-0.37,0.92,-0.55
19958,2025-09-16T15:06:13.903,-0.43,0.92,-0.55
19959,2025-09-16T15:06:13.913,-0.49,0.85,-0.49
19960,2025-09-16T15:06:13.922,-0.37,0.79,-0.49
19961,2025-09-16T15:06:13.932,-0.49,0.79,-0.43
19962,2025-09-16T15:06:13.942,-0.49,0.79,-0.37
19963,2025-09-16T15:06:13.952,-0.18,0.73,-0.31
19964,2025-09-16T15:06:13.962,-0.18,0.73,-0.24
19965,2025-09-16T15:06:13.972,-0.06,0.67,-0.18
19966,2025-09-16T15:06:13.981,0.06,0.67,-0.18
19967,2025-09-16T15:06:13.991,-0.06,0.67,-0.18
19968,2025-09-16T15:06:14.001,-0.18,0.73,-0.18
19969,2025-09-16T15:06:14.011,-0.24,0.73,-0.18
19970,2025-09-16T15:06:14.021,-0.43,0.79,-0.24
19971,2025-09-16T15:06:14.030,-0.43,0.73,-0.24
19972,2025-09-16T15:06:14.040,-0.49,0.79,-0.37
19973,2025-09-16T15:06:14.049,-0.43,0.79,-0.37
19974,2025-09-16T15:06:14.059,-0.43,0.79,-0.43
19975,2025-09-16T15:06:14.069,-0.31,0.79,-0.43
19976,2025-09-16T15:06:14.079,-0.43,0.79,-0.49
19977,2025-09-16T15:06:14.089,-0.43,0.79,-0.49
19978,2025-09-16T15:06:14.098,-0.49,0.79,-0.49
19979,2025-09-16T15:06:14.108,-0.37,0.79,-0.49
19980,2025-09-16T15:06:14.118,-0.31,0.79,-0.43
19981,2025-09-16T15:06:14.128,-0.43,0.85,-0.43
19982,2025-09-16T15:06:14.137,-0.24,0.79,-0.37
19983,2025-09-16T15:06:14.147,-0.24,0.79,-0.31
19984,2025-09-16T15:06:14.157,-0.18,0.73,-0.31
19985,2025-09-16T15:06:14.167,-0.06,0.73,-0.24
19986,2025-09-16T15:06:14.177,-0.18,0.73,-0.24
19987,2025-09-16T15:06:14.186,-0.18,0.73,-0.24
19988,2025-09-16T15:06:14.196,-0.12,0.73,-0.24
19989,2025-09-16T15:06:14.206,-0.37,0.79,-0.24
19990,2025-09-16T15:06:14.216,-0.49,0.79,-0.31
19991,2025-09-16T15:06:14.226,-0.43,0.79,-0.31
19992,2025-09-16T15:06:14.235,-0.55,0.85,-0.37
19993,2025-09-16T15:06:14.245,-0.49,0.85,-0.43
19994,2025-09-16T15:06:14.255,-0.43,0.92,-0.43
19995,2025-09-16T15:06:14.265,-0.43,0.85,-0.43
19996,2025-09-16T15:06:14.275,-0.31,0.85,-0.49
19997,2025-09-16T15:06:14.285,-0.24,0.79,-0.49
19998,2025-09-16T15:06:14.295,-0.43,0.85,-0.49
19999,2025-09-16T15:06:14.305,-0.31,0.85,-0.49
