sample,timestamp,gyro_x,gyro_y,gyro_z
18500,2025-09-16T15:05:59.628,-0.43,0.85,-0.37
18501,2025-09-16T15:05:59.638,-0.31,0.85,-0.37
18502,2025-09-16T15:05:59.648,-0.24,0.85,-0.37
18503,2025-09-16T15:05:59.657,-0.31,0.85,-0.37
18504,2025-09-16T15:05:59.668,-0.31,0.85,-0.37
18505,2025-09-16T15:05:59.677,-0.31,0.85,-0.43
18506,2025-09-16T15:05:59.688,-0.37,0.79,-0.37
18507,2025-09-16T15:05:59.698,-0.43,0.85,-0.43
18508,2025-09-16T15:05:59.707,-0.31,0.85,-0.43
18509,2025-09-16T15:05:59.716,-0.37,0.79,-0.43
18510,2025-09-16T15:05:59.726,-0.37,0.79,-0.43
18511,2025-09-16T15:05:59.736,-0.24,0.79,-0.43
18512,2025-09-16T15:05:59.746,-0.43,0.79,-0.43
18513,2025-09-16T15:05:59.756,-0.55,0.79,-0.49
18514,2025-09-16T15:05:59.765,-0.31,0.79,-0.43
18515,2025-09-16T15:05:59.775,-0.31,0.79,-0.37
18516,2025-09-16T15:05:59.785,-0.37,0.79,-0.37
18517,2025-09-16T15:05:59.795,-0.31,0.79,-0.37
18518,2025-09-16T15:05:59.805,-0.43,0.79,-0.37
18519,2025-09-16T15:05:59.814,-0.24,0.79,-0.31
18520,2025-09-16T15:05:59.824,-0.18,0.79,-0.31
18521,2025-09-16T15:05:59.834,-0.31,0.79,-0.31
18522,2025-09-16T15:05:59.844,-0.24,0.79,-0.31
18523,2025-09-16T15:05:59.853,-0.37,0.85,-0.31
18524,2025-09-16T15:05:59.863,-0.37,0.79,-0.31
18525,2025-09-16T15:05:59.873,-0.43,0.85,-0.31
18526,2025-09-16T15:05:59.883,-0.49,0.85,-0.37
18527,2025-09-16T15:05:59.894,-0.43,0.85,-0.43
18528,2025-09-16T15:05:59.903,-0.37,0.79,-0.37
18529,2025-09-16T15:05:59.912,-0.31,0.79,-0.37
18530,2025-09-16T15:05:59.922,-0.18,0.79,-0.43
18531,2025-09-16T15:05:59.931,-0.18,0.79,-0.43
18532,2025-09-16T15:05:59.942,-0.37,0.79,-0.43
18533,2025-09-16T15:05:59.951,-0.43,0.79,-0.43
18534,2025-09-16T15:05:59.961,-0.43,0.79,-0.43
18535,2025-09-16T15:05:59.971,-0.49,0.79,-0.43
18536,2025-09-16T15:05:59.980,-0.43,0.79,-0.37
18537,2025-09-16T15:05:59.990,-0.31,0.73,-0.37
18538,2025-09-16T15:06:00.000,-0.24,0.73,-0.31
18539,2025-09-16T15:06:00.010,0.0,0.73,-0.31
18540,2025-09-16T15:06:00.020,-0.24,0.73,-0.31
18541,2025-09-16T15:06:00.030,-0.18,0.73,-0.31
18542,2025-09-16T15:06:00.040,-0.43,0.79,-0.37
18543,2025-09-16T15:06:00.049,-0.37,0.79,-0.37
18544,2025-09-16T15:06:00.060,-0.55,0.85,-0.37
18545,2025-09-16T15:06:00.069,-0.61,0.85,-0.37
18546,2025-09-16T15:06:00.079,-0.49,0.85,-0.43
18547,2025-09-16T15:06:00.089,-0.37,0.85,-0.43
18548,2025-09-16T15:06:00.099,-0.37,0.85,-0.43
18549,2025-09-16T15:06:00.108,-0.18,0.85,-0.43
18550,2025-09-16T15:06:00.118,0.06,0.79,-0.43
18551,2025-09-16T15:06:00.127,-0.31,0.85,-0.43
18552,2025-09-16T15:06:00.137,-0.18,0.79,-0.43
18553,2025-09-16T15:06:00.147,-0.55,0.79,-0.37
18554,2025-09-16T15:06:00.157,-0.61,0.79,-0.43
18555,2025-09-16T15:06:00.167,-0.49,0.79,-0.43
18556,2025-09-16T15:06:00.176,-0.61,0.79,-0.43
18557,2025-09-16T15:06:00.186,-0.43,0.79,-0.37
18558,2025-09-16T15:06:00.196,-0.24,0.73,-0.37
18559,2025-09-16T15:06:00.206,-0.18,0.73,-0.31
18560,2025-09-16T15:06:00.216,-0.18,0.79,-0.31
18561,2025-09-16T15:06:00.225,-0.06,0.79,-0.31
18562,2025-09-16T15:06:00.235,-0.24,0.79,-0.37
18563,2025-09-16T15:06:00.245,-0.37,0.79,-0.37
18564,2025-09-16T15:06:00.255,-0.43,0.79,-0.37
18565,2025-09-16T15:06:00.265,-0.73,0.79,-0.43
18566,2025-09-16T15:06:00.274,-0.49,0.79,-0.43
18567,2025-09-16T15:06:00.284,-0.67,0.85,-0.49
18568,2025-09-16T15:06:00.294,-0.31,0.79,-0.43
18569,2025-09-16T15:06:00.304,-0.12,0.79,-0.37
18570,2025-09-16T15:06:00.313,-0.31,0.79,-0.37
18571,2025-09-16T15:06:00.323,-0.24,0.85,-0.37
18572,2025-09-16T15:06:00.333,-0.12,0.79,-0.37
18573,2025-09-16T15:06:00.343,-0.49,0.85,-0.43
18574,2025-09-16T15:06:00.353,-0.43,0.85,-0.37
18575,2025-09-16T15:06:00.362,-0.37,0.85,-0.37
18576,2025-09-16T15:06:00.372,-0.37,0.85,-0.37
18577,2025-09-16T15:06:00.382,-0.49,0.79,-0.37
18578,2025-09-16T15:06:00.391,-0.12,0.73,-0.37
18579,2025-09-16T15:06:00.401,-0.31,0.73,-0.37
18580,2025-09-16T15:06:00.411,-0.31,0.79,-0.43
18581,2025-09-16T15:06:00.421,-0.37,0.73,-0.37
18582,2025-09-16T15:06:00.431,-0.06,0.67,-0.43
18583,2025-09-16T15:06:00.440,-0.67,0.79,-0.49
18584,2025-09-16T15:06:00.450,-0.55,0.79,-0.55
18585,2025-09-16T15:06:00.460,-0.31,0.79,-0.49
18586,2025-09-16T15:06:00.470,-0.67,0.85,-0.49
18587,2025-09-16T15:06:00.479,-0.61,0.85,-0.49
18588,2025-09-16T15:06:00.491,-0.43,0.79,-0.43
18589,2025-09-16T15:06:00.501,-0.43,0.79,-0.37
18590,2025-09-16T15:06:00.509,0.0,0.79,-0.31
18591,2025-09-16T15:06:00.519,-0.12,0.85,-0.31
18592,2025-09-16T15:06:00.529,-0.18,0.85,-0.31
18593,2025-09-16T15:06:00.538,-0.06,0.85,-0.31
18594,2025-09-16T15:06:00.548,-0.12,0.85,-0.31
18595,2025-09-16T15:06:00.558,-0.49,0.92,-0.31
18596,2025-09-16T15:06:00.568,-0.43,0.85,-0.37
18597,2025-09-16T15:06:00.578,-0.43,0.85,-0.31
18598,2025-09-16T15:06:00.588,-0.49,0.79,-0.43
18599,2025-09-16T15:06:00.597,-0.49,0.79,-0.43
18600,2025-09-16T15:06:00.607,-0.31,0.73,-0.43
18601,2025-09-16T15:06:00.617,-0.37,0.73,-0.49
18602,2025-09-16T15:06:00.627,-0.43,0.73,-0.49
18603,2025-09-16T15:06:00.637,-0.43,0.79,-0.49
18604,2025-09-16T15:06:00.648,-0.31,0.79,-0.49
18605,2025-09-16T15:06:00.656,-0.49,0.79,-0.49
18606,2025-09-16T15:06:00.665,-0.37,0.79,-0.43
18607,2025-09-16T15:06:00.677,-0.31,0.79,-0.37
18608,2025-09-16T15:06:00.686,-0.31,0.73,-0.31
18609,2025-09-16T15:06:00.696,-0.24,0.79,-0.31
18610,2025-09-16T15:06:00.706,-0.06,0.73,-0.31
18611,2025-09-16T15:06:00.716,-0.18,0.79,-0.31
18612,2025-09-16T15:06:00.725,-0.24,0.79,-0.31
18613,2025-09-16T15:06:00.735,-0.18,0.79,-0.31
18614,2025-09-16T15:06:00.745,-0.43,0.85,-0.37
18615,2025-09-16T15:06:00.755,-0.43,0.79,-0.37
18616,2025-09-16T15:06:00.765,-0.43,0.85,-0.37
18617,2025-09-16T15:06:00.774,-0.37,0.85,-0.43
18618,2025-09-16T15:06:00.784,-0.43,0.79,-0.43
18619,2025-09-16T15:06:00.794,-0.31,0.85,-0.49
18620,2025-09-16T15:06:00.804,-0.55,0.85,-0.55
18621,2025-09-16T15:06:00.813,-0.37,0.85,-0.49
18622,2025-09-16T15:06:00.823,-0.49,0.79,-0.49
18623,2025-09-16T15:06:00.833,-0.37,0.79,-0.43
18624,2025-09-16T15:06:00.843,-0.31,0.73,-0.37
18625,2025-09-16T15:06:00.853,-0.24,0.73,-0.37
18626,2025-09-16T15:06:00.863,-0.24,0.73,-0.31
18627,2025-09-16T15:06:00.872,-0.31,0.73,-0.31
18628,2025-09-16T15:06:00.882,-0.06,0.73,-0.24
18629,2025-09-16T15:06:00.892,-0.12,0.73,-0.24
18630,2025-09-16T15:06:00.901,-0.37,0.79,-0.24
18631,2025-09-16T15:06:00.911,-0.12,0.79,-0.24
18632,2025-09-16T15:06:00.921,-0.31,0.79,-0.31
18633,2025-09-16T15:06:00.931,-0.49,0.85,-0.43
18634,2025-09-16T15:06:00.941,-0.49,0.85,-0.37
18635,2025-09-16T15:06:00.950,-0.49,0.85,-0.43
18636,2025-09-16T15:06:00.960,-0.55,0.85,-0.49
18637,2025-09-16T15:06:00.970,-0.55,0.85,-0.55
18638,2025-09-16T15:06:00.980,-0.43,0.85,-0.55
18639,2025-09-16T15:06:00.990,-0.37,0.85,-0.49
18640,2025-09-16T15:06:00.999,-0.24,0.85,-0.49
18641,2025-09-16T15:06:01.009,-0.37,0.79,-0.49
18642,2025-09-16T15:06:01.018,-0.31,0.85,-0.49
18643,2025-09-16T15:06:01.028,-0.49,0.79,-0.43
18644,2025-09-16T15:06:01.039,-0.43,0.85,-0.43
18645,2025-09-16T15:06:01.048,-0.31,0.85,-0.31
18646,2025-09-16T15:06:01.058,-0.18,0.79,-0.24
18647,2025-09-16T15:06:01.067,-0.18,0.79,-0.24
18648,2025-09-16T15:06:01.077,-0.12,0.73,-0.24
18649,2025-09-16T15:06:01.087,-0.12,0.73,-0.24
18650,2025-09-16T15:06:01.097,-0.31,0.73,-0.37
18651,2025-09-16T15:06:01.106,-0.61,0.79,-0.37
18652,2025-09-16T15:06:01.117,-0.43,0.79,-0.43
18653,2025-09-16T15:06:01.126,-0.73,0.79,-0.49
18654,2025-09-16T15:06:01.136,-0.61,0.85,-0.49
18655,2025-09-16T15:06:01.147,-0.12,0.79,-0.43
18656,2025-09-16T15:06:01.156,-0.24,0.85,-0.49
18657,2025-09-16T15:06:01.166,-0.43,0.85,-0.49
18658,2025-09-16T15:06:01.176,-0.18,0.79,-0.37
18659,2025-09-16T15:06:01.185,-0.12,0.79,-0.37
18660,2025-09-16T15:06:01.195,-0.55,0.85,-0.37
18661,2025-09-16T15:06:01.205,-0.67,0.92,-0.43
18662,2025-09-16T15:06:01.214,-0.12,0.85,-0.31
18663,2025-09-16T15:06:01.224,-0.31,0.92,-0.37
18664,2025-09-16T15:06:01.234,-0.12,0.85,-0.37
18665,2025-09-16T15:06:01.244,-0.12,0.79,-0.31
18666,2025-09-16T15:06:01.253,-0.24,0.73,-0.37
18667,2025-09-16T15:06:01.263,-0.55,0.73,-0.37
18668,2025-09-16T15:06:01.273,-0.49,0.67,-0.49
18669,2025-09-16T15:06:01.283,-0.92,0.79,-0.49
18670,2025-09-16T15:06:01.292,-0.49,0.79,-0.49
18671,2025-09-16T15:06:01.302,-0.18,0.85,-0.43
18672,2025-09-16T15:06:01.312,-0.37,0.92,-0.55
18673,2025-09-16T15:06:01.323,-0.31,0.92,-0.43
18674,2025-09-16T15:06:01.332,0.0,0.85,-0.43
18675,2025-09-16T15:06:01.341,-0.43,0.85,-0.43
18676,2025-09-16T15:06:01.351,-0.31,0.79,-0.37
18677,2025-09-16T15:06:01.361,-0.37,0.73,-0.37
18678,2025-09-16T15:06:01.371,-0.49,0.79,-0.37
18679,2025-09-16T15:06:01.381,-0.43,0.79,-0.37
18680,2025-09-16T15:06:01.390,-0.37,0.73,-0.37
18681,2025-09-16T15:06:01.400,-0.43,0.79,-0.37
18682,2025-09-16T15:06:01.410,-0.24,0.79,-0.37
18683,2025-09-16T15:06:01.420,-0.12,0.79,-0.31
18684,2025-09-16T15:06:01.430,-0.43,0.85,-0.37
18685,2025-09-16T15:06:01.440,-0.31,0.85,-0.43
18686,2025-09-16T15:06:01.450,-0.37,0.85,-0.37
18687,2025-09-16T15:06:01.460,-0.49,0.85,-0.43
18688,2025-09-16T15:06:01.469,-0.37,0.79,-0.37
18689,2025-09-16T15:06:01.479,-0.06,0.73,-0.37
18690,2025-09-16T15:06:01.489,-0.31,0.73,-0.37
18691,2025-09-16T15:06:01.499,-0.49,0.79,-0.43
18692,2025-09-16T15:06:01.508,-0.49,0.79,-0.43
18693,2025-09-16T15:06:01.518,-0.31,0.73,-0.37
18694,2025-09-16T15:06:01.527,-0.24,0.73,-0.37
18695,2025-09-16T15:06:01.537,-0.12,0.73,-0.37
18696,2025-09-16T15:06:01.547,-0.37,0.73,-0.37
18697,2025-09-16T15:06:01.557,-0.24,0.73,-0.37
18698,2025-09-16T15:06:01.567,-0.43,0.73,-0.37
18699,2025-09-16T15:06:01.576,-0.49,0.79,-0.43
18700,2025-09-16T15:06:01.586,-0.55,0.79,-0.37
18701,2025-09-16T15:06:01.596,-0.43,0.79,-0.37
18702,2025-09-16T15:06:01.606,-0.43,0.79,-0.37
18703,2025-09-16T15:06:01.616,-0.12,0.79,-0.31
18704,2025-09-16T15:06:01.626,-0.18,0.79,-0.31
18705,2025-09-16T15:06:01.635,0.12,0.73,-0.31
18706,2025-09-16T15:06:01.645,-0.73,0.92,-0.43
18707,2025-09-16T15:06:01.655,0.37,0.73,-0.12
18708,2025-09-16T15:06:01.665,-0.43,0.85,-0.43
18709,2025-09-16T15:06:01.674,-1.28,0.92,-0.37
18710,2025-09-16T15:06:01.684,0.24,0.79,-0.43
18711,2025-09-16T15:06:01.695,-0.92,0.92,-0.43
18712,2025-09-16T15:06:01.704,-0.55,0.92,-0.49
18713,2025-09-16T15:06:01.714,-0.18,0.85,-0.43
18714,2025-09-16T15:06:01.723,-0.49,0.85,-0.49
18715,2025-09-16T15:06:01.733,-0.24,0.79,-0.49
18716,2025-09-16T15:06:01.743,-0.12,0.79,-0.49
18717,2025-09-16T15:06:01.753,-0.43,0.79,-0.49
18718,2025-09-16T15:06:01.763,-0.55,0.79,-0.49
18719,2025-09-16T15:06:01.773,-0.31,0.79,-0.49
18720,2025-09-16T15:06:01.782,-0.73,0.79,-0.43
18721,2025-09-16T15:06:01.793,-0.37,0.79,-0.37
18722,2025-09-16T15:06:01.802,-0.18,0.79,-0.31
18723,2025-09-16T15:06:01.812,-0.18,0.79,-0.31
18724,2025-09-16T15:06:01.821,-0.24,0.79,-0.24
18725,2025-09-16T15:06:01.831,0.12,0.79,-0.24
18726,2025-09-16T15:06:01.841,-0.31,0.85,-0.24
18727,2025-09-16T15:06:01.851,-0.31,0.79,-0.31
18728,2025-09-16T15:06:01.861,-0.37,0.85,-0.31
18729,2025-09-16T15:06:01.870,-0.43,0.85,-0.37
18730,2025-09-16T15:06:01.880,-0.67,0.85,-0.43
18731,2025-09-16T15:06:01.890,-0.31,0.79,-0.43
18732,2025-09-16T15:06:01.900,-0.37,0.79,-0.43
18733,2025-09-16T15:06:01.909,-0.43,0.79,-0.49
18734,2025-09-16T15:06:01.919,-0.43,0.73,-0.49
18735,2025-09-16T15:06:01.929,-0.18,0.73,-0.49
18736,2025-09-16T15:06:01.939,-0.43,0.73,-0.49
18737,2025-09-16T15:06:01.948,-0.49,0.73,-0.43
18738,2025-09-16T15:06:01.958,-0.37,0.73,-0.43
18739,2025-09-16T15:06:01.968,-0.06,0.73,-0.31
18740,2025-09-16T15:06:01.978,-0.18,0.73,-0.31
18741,2025-09-16T15:06:01.988,-0.24,0.73,-0.18
18742,2025-09-16T15:06:01.997,-0.06,0.79,-0.18
18743,2025-09-16T15:06:02.007,-0.24,0.79,-0.18
18744,2025-09-16T15:06:02.018,-0.18,0.79,-0.18
18745,2025-09-16T15:06:02.027,-0.12,0.79,-0.24
18746,2025-09-16T15:06:02.037,-0.49,0.85,-0.31
18747,2025-09-16T15:06:02.047,-0.43,0.85,-0.37
18748,2025-09-16T15:06:02.057,-0.37,0.79,-0.37
18749,2025-09-16T15:06:02.066,-0.61,0.79,-0.49
18750,2025-09-16T15:06:02.076,-0.49,0.85,-0.55
18751,2025-09-16T15:06:02.086,-0.43,0.85,-0.55
18752,2025-09-16T15:06:02.096,-0.55,0.85,-0.55
18753,2025-09-16T15:06:02.105,-0.49,0.85,-0.55
18754,2025-09-16T15:06:02.115,-0.18,0.85,-0.49
18755,2025-09-16T15:06:02.125,-0.24,0.85,-0.43
18756,2025-09-16T15:06:02.134,-0.18,0.79,-0.43
18757,2025-09-16T15:06:02.144,-0.06,0.79,-0.37
18758,2025-09-16T15:06:02.154,-0.18,0.79,-0.31
18759,2025-09-16T15:06:02.164,-0.49,0.79,-0.31
18760,2025-09-16T15:06:02.174,-0.49,0.79,-0.31
18761,2025-09-16T15:06:02.183,-0.43,0.79,-0.31
18762,2025-09-16T15:06:02.193,-0.49,0.85,-0.37
18763,2025-09-16T15:06:02.203,-0.37,0.85,-0.37
18764,2025-09-16T15:06:02.213,-0.18,0.79,-0.31
18765,2025-09-16T15:06:02.223,-0.06,0.73,-0.37
18766,2025-09-16T15:06:02.232,-0.37,0.73,-0.49
18767,2025-09-16T15:06:02.242,-0.61,0.79,-0.43
18768,2025-09-16T15:06:02.252,-0.18,0.73,-0.49
18769,2025-09-16T15:06:02.262,-0.79,0.79,-0.49
18770,2025-09-16T15:06:02.271,-0.55,0.79,-0.43
18771,2025-09-16T15:06:02.281,-0.37,0.79,-0.43
18772,2025-09-16T15:06:02.291,-0.31,0.79,-0.37
18773,2025-09-16T15:06:02.301,-0.12,0.85,-0.31
18774,2025-09-16T15:06:02.311,-0.18,0.85,-0.37
18775,2025-09-16T15:06:02.321,-0.24,0.85,-0.37
18776,2025-09-16T15:06:02.331,-0.18,0.85,-0.31
18777,2025-09-16T15:06:02.341,-0.31,0.85,-0.31
18778,2025-09-16T15:06:02.351,-0.55,0.85,-0.37
18779,2025-09-16T15:06:02.360,-0.49,0.79,-0.43
18780,2025-09-16T15:06:02.370,-0.43,0.73,-0.43
18781,2025-09-16T15:06:02.380,-0.55,0.73,-0.49
18782,2025-09-16T15:06:02.390,-0.43,0.73,-0.43
18783,2025-09-16T15:06:02.400,-0.18,0.73,-0.43
18784,2025-09-16T15:06:02.410,-0.43,0.79,-0.43
18785,2025-09-16T15:06:02.419,-0.12,0.79,-0.43
18786,2025-09-16T15:06:02.429,-0.18,0.79,-0.43
18787,2025-09-16T15:06:02.439,-0.49,0.85,-0.43
18788,2025-09-16T15:06:02.448,-0.43,0.79,-0.37
18789,2025-09-16T15:06:02.458,-0.43,0.85,-0.37
18790,2025-09-16T15:06:02.468,-0.43,0.85,-0.37
18791,2025-09-16T15:06:02.478,-0.37,0.79,-0.37
18792,2025-09-16T15:06:02.487,-0.37,0.79,-0.37
18793,2025-09-16T15:06:02.497,-0.12,0.79,-0.37
18794,2025-09-16T15:06:02.507,-0.18,0.79,-0.37
18795,2025-09-16T15:06:02.517,-0.31,0.85,-0.37
18796,2025-09-16T15:06:02.527,-0.18,0.85,-0.37
18797,2025-09-16T15:06:02.537,-0.18,0.79,-0.37
18798,2025-09-16T15:06:02.546,-0.43,0.79,-0.43
18799,2025-09-16T15:06:02.556,-0.55,0.85,-0.43
18800,2025-09-16T15:06:02.566,-0.49,0.79,-0.49
18801,2025-09-16T15:06:02.576,-0.49,0.79,-0.43
18802,2025-09-16T15:06:02.586,-0.24,0.73,-0.43
18803,2025-09-16T15:06:02.595,-0.31,0.79,-0.37
18804,2025-09-16T15:06:02.605,-0.31,0.73,-0.43
18805,2025-09-16T15:06:02.615,-0.24,0.73,-0.37
18806,2025-09-16T15:06:02.624,-0.37,0.73,-0.43
18807,2025-09-16T15:06:02.634,-0.49,0.79,-0.43
18808,2025-09-16T15:06:02.644,-0.49,0.79,-0.37
18809,2025-09-16T15:06:02.654,-0.31,0.85,-0.37
18810,2025-09-16T15:06:02.664,-0.37,0.79,-0.37
18811,2025-09-16T15:06:02.673,-0.24,0.85,-0.37
18812,2025-09-16T15:06:02.684,-0.12,0.79,-0.31
18813,2025-09-16T15:06:02.692,-0.12,0.85,-0.37
18814,2025-09-16T15:06:02.703,-0.43,0.85,-0.37
18815,2025-09-16T15:06:02.712,-0.24,0.85,-0.43
18816,2025-09-16T15:06:02.722,-0.37,0.85,-0.43
18817,2025-09-16T15:06:02.732,-0.67,0.85,-0.49
18818,2025-09-16T15:06:02.742,-0.67,0.85,-0.49
18819,2025-09-16T15:06:02.751,-0.18,0.79,-0.43
18820,2025-09-16T15:06:02.762,-0.18,0.79,-0.43
18821,2025-09-16T15:06:02.771,-0.18,0.79,-0.37
18822,2025-09-16T15:06:02.780,-0.06,0.79,-0.43
18823,2025-09-16T15:06:02.791,-0.43,0.92,-0.49
18824,2025-09-16T15:06:02.800,-0.67,0.92,-0.49
18825,2025-09-16T15:06:02.811,-0.31,0.85,-0.43
18826,2025-09-16T15:06:02.820,-0.61,0.92,-0.49
18827,2025-09-16T15:06:02.830,-0.61,0.85,-0.43
18828,2025-09-16T15:06:02.840,-0.18,0.79,-0.43
18829,2025-09-16T15:06:02.850,-0.31,0.73,-0.37
18830,2025-09-16T15:06:02.859,-0.31,0.73,-0.37
18831,2025-09-16T15:06:02.869,0.0,0.67,-0.31
18832,2025-09-16T15:06:02.879,0.06,0.67,-0.24
18833,2025-09-16T15:06:02.889,-0.49,0.73,-0.24
18834,2025-09-16T15:06:02.899,0.0,0.67,-0.24
18835,2025-09-16T15:06:02.908,-0.49,0.79,-0.24
18836,2025-09-16T15:06:02.918,-0.43,0.85,-0.31
18837,2025-09-16T15:06:02.928,-0.55,0.85,-0.31
18838,2025-09-16T15:06:02.937,-0.55,0.92,-0.43
18839,2025-09-16T15:06:02.948,-0.24,0.85,-0.31
18840,2025-09-16T15:06:02.957,-0.06,0.79,-0.49
18841,2025-09-16T15:06:02.967,-1.4,0.85,-0.49
18842,2025-09-16T15:06:02.977,0.37,0.67,-0.43
18843,2025-09-16T15:06:02.987,-0.73,0.79,-0.49
18844,2025-09-16T15:06:02.997,-0.24,0.79,-0.49
18845,2025-09-16T15:06:03.006,-0.12,0.79,-0.49
18846,2025-09-16T15:06:03.016,-0.12,0.79,-0.43
18847,2025-09-16T15:06:03.026,-0.31,0.85,-0.43
18848,2025-09-16T15:06:03.036,-0.37,0.85,-0.43
18849,2025-09-16T15:06:03.045,-0.67,0.85,-0.43
18850,2025-09-16T15:06:03.055,-0.43,0.79,-0.37
18851,2025-09-16T15:06:03.065,-0.55,0.73,-0.31
18852,2025-09-16T15:06:03.075,-0.24,0.73,-0.31
18853,2025-09-16T15:06:03.085,-0.31,0.67,-0.24
18854,2025-09-16T15:06:03.094,0.0,0.73,-0.24
18855,2025-09-16T15:06:03.104,-29.97,4.33,-2.87
18856,2025-09-16T15:06:03.114,-67.44,9.22,-8.3
18857,2025-09-16T15:06:03.124,20.69,-2.44,1.65
18858,2025-09-16T15:06:03.134,23.62,-0.12,5.0
18859,2025-09-16T15:06:03.143,32.41,-3.11,3.23
18860,2025-09-16T15:06:03.153,3.78,0.61,1.95
18861,2025-09-16T15:06:03.163,0.24,0.79,-0.06
18862,2025-09-16T15:06:03.172,2.14,0.55,-0.24
18863,2025-09-16T15:06:03.182,-0.24,0.79,-0.49
18864,2025-09-16T15:06:03.192,0.61,0.67,-0.43
18865,2025-09-16T15:06:03.202,0.92,0.67,-0.37
18866,2025-09-16T15:06:03.212,-0.24,0.85,-0.49
18867,2025-09-16T15:06:03.221,0.12,0.79,-0.43
18868,2025-09-16T15:06:03.231,0.12,0.79,-0.43
18869,2025-09-16T15:06:03.241,-0.61,0.85,-0.43
18870,2025-09-16T15:06:03.251,-0.43,0.79,-0.37
18871,2025-09-16T15:06:03.261,-0.06,0.73,-0.24
18872,2025-09-16T15:06:03.270,-0.06,0.73,-0.24
18873,2025-09-16T15:06:03.280,0.18,0.61,-0.18
18874,2025-09-16T15:06:03.289,0.24,0.67,-0.18
18875,2025-09-16T15:06:03.299,0.12,0.73,-0.18
18876,2025-09-16T15:06:03.309,0.0,0.79,-0.24
18877,2025-09-16T15:06:03.319,-0.24,0.85,-0.37
18878,2025-09-16T15:06:03.329,-0.55,0.85,-0.43
18879,2025-09-16T15:06:03.339,-0.73,0.92,-0.55
18880,2025-09-16T15:06:03.348,-0.92,0.98,-0.61
18881,2025-09-16T15:06:03.358,-0.67,0.92,-0.55
18882,2025-09-16T15:06:03.368,-0.31,0.79,-0.55
18883,2025-09-16T15:06:03.378,-0.18,0.79,-0.55
18884,2025-09-16T15:06:03.388,0.0,0.79,-0.49
18885,2025-09-16T15:06:03.398,0.12,0.73,-0.43
18886,2025-09-16T15:06:03.407,-0.06,0.79,-0.43
18887,2025-09-16T15:06:03.417,-0.43,0.85,-0.43
18888,2025-09-16T15:06:03.427,-0.37,0.85,-0.37
18889,2025-09-16T15:06:03.437,-0.55,0.79,-0.31
18890,2025-09-16T15:06:03.447,-0.67,0.79,-0.31
18891,2025-09-16T15:06:03.456,-0.37,0.79,-0.31
18892,2025-09-16T15:06:03.466,-0.18,0.73,-0.24
18893,2025-09-16T15:06:03.476,-0.31,0.73,-0.24
18894,2025-09-16T15:06:03.486,0.06,0.67,-0.24
18895,2025-09-16T15:06:03.496,-0.06,0.73,-0.31
18896,2025-09-16T15:06:03.505,-0.43,0.79,-0.37
18897,2025-09-16T15:06:03.515,-0.31,0.73,-0.37
18898,2025-09-16T15:06:03.525,-0.24,0.79,-0.37
18899,2025-09-16T15:06:03.535,-0.43,0.79,-0.37
18900,2025-09-16T15:06:03.544,-0.24,0.79,-0.37
18901,2025-09-16T15:06:03.554,-0.37,0.85,-0.43
18902,2025-09-16T15:06:03.564,-0.61,0.85,-0.37
18903,2025-09-16T15:06:03.574,-7.08,1.59,-1.16
18904,2025-09-16T15:06:03.583,-17.46,2.87,-1.89
18905,2025-09-16T15:06:03.594,-2.26,1.1,-0.73
18906,2025-09-16T15:06:03.603,-8.85,1.89,-1.1
18907,2025-09-16T15:06:03.613,-8.36,1.77,-1.28
18908,2025-09-16T15:06:03.623,-7.51,1.71,-1.04
18909,2025-09-16T15:06:03.632,17.58,-1.34,1.16
18910,2025-09-16T15:06:03.642,12.82,-0.79,0.85
18911,2025-09-16T15:06:03.652,10.68,-0.43,0.55
18912,2025-09-16T15:06:03.662,0.24,0.79,-0.24
18913,2025-09-16T15:06:03.672,-1.34,0.98,-0.49
18914,2025-09-16T15:06:03.682,2.75,0.43,0.0
18915,2025-09-16T15:06:03.691,-0.37,0.79,-0.37
18916,2025-09-16T15:06:03.701,-0.79,0.79,-0.31
18917,2025-09-16T15:06:03.711,1.16,0.61,-0.31
18918,2025-09-16T15:06:03.721,-0.61,0.79,-0.49
18919,2025-09-16T15:06:03.730,-0.37,0.79,-0.49
18920,2025-09-16T15:06:03.740,0.18,0.73,-0.43
18921,2025-09-16T15:06:03.750,-0.85,0.85,-0.49
18922,2025-09-16T15:06:03.760,-0.24,0.73,-0.49
18923,2025-09-16T15:06:03.770,-0.37,0.73,-0.43
18924,2025-09-16T15:06:03.779,-0.37,0.79,-0.43
18925,2025-09-16T15:06:03.790,-0.06,0.73,-0.31
18926,2025-09-16T15:06:03.799,0.06,0.73,-0.24
18927,2025-09-16T15:06:03.809,0.24,0.67,-0.18
18928,2025-09-16T15:06:03.818,0.37,0.79,-0.12
18929,2025-09-16T15:06:03.828,0.0,0.85,-0.18
18930,2025-09-16T15:06:03.838,0.0,0.85,-0.12
18931,2025-09-16T15:06:03.848,-0.12,0.92,-0.24
18932,2025-09-16T15:06:03.857,-0.55,0.92,-0.37
18933,2025-09-16T15:06:03.867,-0.61,0.92,-0.43
18934,2025-09-16T15:06:03.877,-0.61,0.85,-0.55
18935,2025-09-16T15:06:03.887,-0.85,0.79,-0.61
18936,2025-09-16T15:06:03.897,-0.73,0.73,-0.67
18937,2025-09-16T15:06:03.907,-0.73,0.73,-0.67
18938,2025-09-16T15:06:03.916,-0.12,0.73,-0.61
18939,2025-09-16T15:06:03.926,-0.24,0.79,-0.61
18940,2025-09-16T15:06:03.936,-0.18,0.79,-0.49
18941,2025-09-16T15:06:03.946,0.12,0.73,-0.43
18942,2025-09-16T15:06:03.956,-0.12,0.79,-0.31
18943,2025-09-16T15:06:03.965,0.06,0.73,-0.24
18944,2025-09-16T15:06:03.975,-0.37,0.79,-0.18
18945,2025-09-16T15:06:03.985,-0.55,0.85,-0.24
18946,2025-09-16T15:06:03.995,-0.31,0.85,-0.12
18947,2025-09-16T15:06:04.005,-0.18,0.85,-0.18
18948,2025-09-16T15:06:04.014,-0.31,0.79,-0.24
18949,2025-09-16T15:06:04.024,0.0,0.79,-0.24
18950,2025-09-16T15:06:04.034,0.12,0.73,-0.31
18951,2025-09-16T15:06:04.044,-0.24,0.79,-0.43
18952,2025-09-16T15:06:04.053,-0.55,0.79,-0.43
18953,2025-09-16T15:06:04.062,-0.49,0.79,-0.49
18954,2025-09-16T15:06:04.073,-1.16,0.92,-0.55
18955,2025-09-16T15:06:04.083,-0.43,0.92,-0.49
18956,2025-09-16T15:06:04.093,-0.12,0.85,-0.43
18957,2025-09-16T15:06:04.103,-0.37,0.85,-0.43
18958,2025-09-16T15:06:04.112,0.06,0.85,-0.37
18959,2025-09-16T15:06:04.122,0.06,0.85,-0.37
18960,2025-09-16T15:06:04.131,-0.37,0.85,-0.43
18961,2025-09-16T15:06:04.141,-0.24,0.85,-0.31
18962,2025-09-16T15:06:04.151,-0.55,0.85,-0.37
18963,2025-09-16T15:06:04.161,-16.17,2.75,-1.83
18964,2025-09-16T15:06:04.171,-6.59,1.59,-1.04
18965,2025-09-16T15:06:04.181,29.6,-2.75,2.56
18966,2025-09-16T15:06:04.190,-21.61,4.15,1.71
18967,2025-09-16T15:06:04.200,-85.39,13.18,-5.49
18968,2025-09-16T15:06:04.210,-58.41,4.46,-25.76
18969,2025-09-16T15:06:04.220,16.05,3.11,-17.4
18970,2025-09-16T15:06:04.230,24.72,2.44,-3.42
18971,2025-09-16T15:06:04.240,7.51,2.5,-3.36
18972,2025-09-16T15:06:04.250,-18.92,3.42,-8.18
18973,2025-09-16T15:06:04.260,-109.86,8.67,-26.37
18974,2025-09-16T15:06:04.270,-100.46,10.74,-52.55
18975,2025-09-16T15:06:04.279,-45.65,23.5,-48.34
18976,2025-09-16T15:06:04.289,7.26,16.24,-26.25
18977,2025-09-16T15:06:04.298,23.86,-0.18,-8.54
18978,2025-09-16T15:06:04.308,23.13,1.4,-1.04
18979,2025-09-16T15:06:04.319,10.13,0.43,-2.5
18980,2025-09-16T15:06:04.329,3.3,0.61,0.24
18981,2025-09-16T15:06:04.338,4.82,1.59,0.98
18982,2025-09-16T15:06:04.348,1.59,0.61,-0.31
18983,2025-09-16T15:06:04.358,0.24,0.73,-0.67
18984,2025-09-16T15:06:04.367,0.37,0.67,-0.55
18985,2025-09-16T15:06:04.377,0.55,0.85,-0.24
18986,2025-09-16T15:06:04.387,-0.37,0.85,-0.43
18987,2025-09-16T15:06:04.397,-0.24,0.85,-0.43
18988,2025-09-16T15:06:04.406,-0.24,0.85,-0.43
18989,2025-09-16T15:06:04.417,-0.31,0.85,-0.43
18990,2025-09-16T15:06:04.426,-0.31,0.79,-0.37
18991,2025-09-16T15:06:04.436,-0.31,0.73,-0.43
18992,2025-09-16T15:06:04.446,-0.31,0.79,-0.18
18993,2025-09-16T15:06:04.455,-0.49,0.85,-0.31
18994,2025-09-16T15:06:04.465,-0.24,0.67,-0.37
18995,2025-09-16T15:06:04.475,-0.31,0.67,-0.43
18996,2025-09-16T15:06:04.485,-0.31,0.73,-0.37
18997,2025-09-16T15:06:04.495,-0.18,0.73,-0.31
18998,2025-09-16T15:06:04.505,-0.31,0.73,-0.31
18999,2025-09-16T15:06:04.514,-0.31,0.79,-0.31
