sample,timestamp,gyro_x,gyro_y,gyro_z
18000,2025-09-16T15:05:54.733,-0.31,0.85,-0.43
18001,2025-09-16T15:05:54.743,-0.55,0.85,-0.49
18002,2025-09-16T15:05:54.752,-0.55,0.85,-0.43
18003,2025-09-16T15:05:54.762,-0.49,0.85,-0.49
18004,2025-09-16T15:05:54.772,-0.43,0.85,-0.43
18005,2025-09-16T15:05:54.782,-0.24,0.79,-0.37
18006,2025-09-16T15:05:54.792,-0.18,0.79,-0.37
18007,2025-09-16T15:05:54.802,-0.18,0.73,-0.37
18008,2025-09-16T15:05:54.812,-0.24,0.73,-0.37
18009,2025-09-16T15:05:54.821,-0.31,0.73,-0.37
18010,2025-09-16T15:05:54.831,-0.49,0.73,-0.37
18011,2025-09-16T15:05:54.841,-0.49,0.73,-0.43
18012,2025-09-16T15:05:54.851,-0.37,0.73,-0.37
18013,2025-09-16T15:05:54.861,-0.37,0.79,-0.37
18014,2025-09-16T15:05:54.870,-0.31,0.79,-0.37
18015,2025-09-16T15:05:54.880,-0.24,0.79,-0.37
18016,2025-09-16T15:05:54.890,-0.24,0.79,-0.37
18017,2025-09-16T15:05:54.899,-0.31,0.79,-0.31
18018,2025-09-16T15:05:54.909,-0.31,0.85,-0.37
18019,2025-09-16T15:05:54.919,-0.37,0.85,-0.37
18020,2025-09-16T15:05:54.929,-0.31,0.85,-0.43
18021,2025-09-16T15:05:54.939,-0.49,0.85,-0.43
18022,2025-09-16T15:05:54.949,-0.43,0.85,-0.49
18023,2025-09-16T15:05:54.959,-0.43,0.85,-0.43
18024,2025-09-16T15:05:54.968,-0.37,0.79,-0.49
18025,2025-09-16T15:05:54.978,-0.43,0.85,-0.49
18026,2025-09-16T15:05:54.988,-0.31,0.79,-0.49
18027,2025-09-16T15:05:54.997,-0.43,0.73,-0.49
18028,2025-09-16T15:05:55.007,-0.31,0.73,-0.43
18029,2025-09-16T15:05:55.017,-0.24,0.73,-0.37
18030,2025-09-16T15:05:55.027,-0.24,0.73,-0.37
18031,2025-09-16T15:05:55.036,-0.31,0.73,-0.31
18032,2025-09-16T15:05:55.047,-0.24,0.73,-0.31
18033,2025-09-16T15:05:55.056,-0.31,0.79,-0.31
18034,2025-09-16T15:05:55.066,-0.43,0.79,-0.31
18035,2025-09-16T15:05:55.076,-0.37,0.79,-0.31
18036,2025-09-16T15:05:55.086,-0.43,0.85,-0.31
18037,2025-09-16T15:05:55.095,-0.43,0.85,-0.37
18038,2025-09-16T15:05:55.105,-0.43,0.79,-0.43
18039,2025-09-16T15:05:55.115,-0.31,0.79,-0.37
18040,2025-09-16T15:05:55.125,-0.24,0.79,-0.43
18041,2025-09-16T15:05:55.134,-0.31,0.79,-0.43
18042,2025-09-16T15:05:55.144,-0.31,0.79,-0.49
18043,2025-09-16T15:05:55.154,-0.43,0.79,-0.43
18044,2025-09-16T15:05:55.164,-0.43,0.85,-0.43
18045,2025-09-16T15:05:55.173,-0.37,0.85,-0.43
18046,2025-09-16T15:05:55.183,-0.43,0.85,-0.43
18047,2025-09-16T15:05:55.193,-0.37,0.79,-0.37
18048,2025-09-16T15:05:55.204,-0.18,0.79,-0.31
18049,2025-09-16T15:05:55.213,-0.18,0.79,-0.31
18050,2025-09-16T15:05:55.223,-0.18,0.73,-0.31
18051,2025-09-16T15:05:55.233,-0.31,0.79,-0.31
18052,2025-09-16T15:05:55.242,-0.31,0.79,-0.31
18053,2025-09-16T15:05:55.252,-0.43,0.79,-0.37
18054,2025-09-16T15:05:55.262,-0.49,0.79,-0.37
18055,2025-09-16T15:05:55.272,-0.43,0.79,-0.43
18056,2025-09-16T15:05:55.281,-0.43,0.79,-0.43
18057,2025-09-16T15:05:55.292,-0.43,0.79,-0.43
18058,2025-09-16T15:05:55.301,-0.37,0.79,-0.43
18059,2025-09-16T15:05:55.311,-0.24,0.79,-0.49
18060,2025-09-16T15:05:55.320,-0.31,0.79,-0.43
18061,2025-09-16T15:05:55.330,-0.24,0.79,-0.37
18062,2025-09-16T15:05:55.340,-0.43,0.85,-0.43
18063,2025-09-16T15:05:55.350,-0.37,0.85,-0.43
18064,2025-09-16T15:05:55.360,-0.37,0.92,-0.37
18065,2025-09-16T15:05:55.369,-0.37,0.85,-0.37
18066,2025-09-16T15:05:55.379,-0.37,0.85,-0.37
18067,2025-09-16T15:05:55.389,-0.24,0.85,-0.37
18068,2025-09-16T15:05:55.399,-0.31,0.85,-0.37
18069,2025-09-16T15:05:55.409,-0.37,0.79,-0.37
18070,2025-09-16T15:05:55.419,-0.24,0.79,-0.37
18071,2025-09-16T15:05:55.428,-0.37,0.73,-0.37
18072,2025-09-16T15:05:55.438,-0.37,0.79,-0.37
18073,2025-09-16T15:05:55.448,-0.37,0.73,-0.37
18074,2025-09-16T15:05:55.458,-0.37,0.79,-0.43
18075,2025-09-16T15:05:55.467,-0.37,0.73,-0.43
18076,2025-09-16T15:05:55.477,-0.31,0.79,-0.37
18077,2025-09-16T15:05:55.487,-0.37,0.73,-0.37
18078,2025-09-16T15:05:55.497,-0.37,0.79,-0.37
18079,2025-09-16T15:05:55.506,-0.37,0.79,-0.37
18080,2025-09-16T15:05:55.516,-0.37,0.85,-0.37
18081,2025-09-16T15:05:55.526,-0.31,0.85,-0.37
18082,2025-09-16T15:05:55.536,-0.31,0.85,-0.43
18083,2025-09-16T15:05:55.546,-0.31,0.85,-0.37
18084,2025-09-16T15:05:55.555,-0.31,0.79,-0.37
18085,2025-09-16T15:05:55.565,-0.31,0.85,-0.37
18086,2025-09-16T15:05:55.575,-0.31,0.85,-0.37
18087,2025-09-16T15:05:55.585,-0.31,0.79,-0.37
18088,2025-09-16T15:05:55.595,-0.31,0.79,-0.43
18089,2025-09-16T15:05:55.604,-0.37,0.85,-0.43
18090,2025-09-16T15:05:55.615,-0.49,0.85,-0.43
18091,2025-09-16T15:05:55.625,-0.37,0.85,-0.43
18092,2025-09-16T15:05:55.634,-0.37,0.85,-0.37
18093,2025-09-16T15:05:55.644,-0.37,0.79,-0.37
18094,2025-09-16T15:05:55.654,-0.43,0.79,-0.43
18095,2025-09-16T15:05:55.664,-0.24,0.73,-0.43
18096,2025-09-16T15:05:55.674,-0.37,0.79,-0.37
18097,2025-09-16T15:05:55.684,-0.31,0.73,-0.37
18098,2025-09-16T15:05:55.693,-0.31,0.73,-0.37
18099,2025-09-16T15:05:55.703,-0.43,0.79,-0.43
18100,2025-09-16T15:05:55.713,-0.49,0.79,-0.43
18101,2025-09-16T15:05:55.722,-0.43,0.79,-0.37
18102,2025-09-16T15:05:55.732,-0.43,0.79,-0.37
18103,2025-09-16T15:05:55.742,-0.37,0.79,-0.43
18104,2025-09-16T15:05:55.752,-0.24,0.79,-0.43
18105,2025-09-16T15:05:55.762,-0.31,0.79,-0.37
18106,2025-09-16T15:05:55.771,-0.24,0.79,-0.43
18107,2025-09-16T15:05:55.781,-0.31,0.79,-0.37
18108,2025-09-16T15:05:55.791,-0.37,0.85,-0.37
18109,2025-09-16T15:05:55.801,-0.43,0.85,-0.37
18110,2025-09-16T15:05:55.811,-0.43,0.85,-0.37
18111,2025-09-16T15:05:55.820,-0.43,0.85,-0.43
18112,2025-09-16T15:05:55.830,-0.37,0.85,-0.43
18113,2025-09-16T15:05:55.840,-0.43,0.85,-0.43
18114,2025-09-16T15:05:55.850,-0.37,0.79,-0.43
18115,2025-09-16T15:05:55.860,-0.37,0.79,-0.43
18116,2025-09-16T15:05:55.871,-0.31,0.73,-0.43
18117,2025-09-16T15:05:55.878,-0.31,0.73,-0.43
18118,2025-09-16T15:05:55.889,-0.37,0.73,-0.43
18119,2025-09-16T15:05:55.899,-0.31,0.73,-0.43
18120,2025-09-16T15:05:55.907,-0.43,0.73,-0.43
18121,2025-09-16T15:05:55.918,-0.43,0.73,-0.37
18122,2025-09-16T15:05:55.927,-0.31,0.73,-0.37
18123,2025-09-16T15:05:55.937,-0.37,0.79,-0.37
18124,2025-09-16T15:05:55.947,-0.37,0.85,-0.37
18125,2025-09-16T15:05:55.956,-0.37,0.79,-0.37
18126,2025-09-16T15:05:55.966,-0.37,0.79,-0.37
18127,2025-09-16T15:05:55.976,-0.24,0.79,-0.37
18128,2025-09-16T15:05:55.986,-0.31,0.79,-0.37
18129,2025-09-16T15:05:55.996,-0.31,0.85,-0.37
18130,2025-09-16T15:05:56.007,-0.31,0.79,-0.37
18131,2025-09-16T15:05:56.016,-0.37,0.85,-0.43
18132,2025-09-16T15:05:56.026,-0.43,0.85,-0.43
18133,2025-09-16T15:05:56.036,-0.37,0.85,-0.43
18134,2025-09-16T15:05:56.046,-0.37,0.79,-0.43
18135,2025-09-16T15:05:56.055,-0.37,0.85,-0.43
18136,2025-09-16T15:05:56.065,-0.37,0.79,-0.43
18137,2025-09-16T15:05:56.075,-0.24,0.79,-0.37
18138,2025-09-16T15:05:56.085,-0.37,0.79,-0.43
18139,2025-09-16T15:05:56.095,-0.31,0.79,-0.37
18140,2025-09-16T15:05:56.104,-0.31,0.79,-0.37
18141,2025-09-16T15:05:56.114,-0.43,0.79,-0.37
18142,2025-09-16T15:05:56.123,-0.43,0.79,-0.37
18143,2025-09-16T15:05:56.133,-0.37,0.79,-0.43
18144,2025-09-16T15:05:56.143,-0.43,0.79,-0.43
18145,2025-09-16T15:05:56.153,-0.43,0.79,-0.43
18146,2025-09-16T15:05:56.163,-0.37,0.79,-0.37
18147,2025-09-16T15:05:56.173,-0.31,0.79,-0.43
18148,2025-09-16T15:05:56.183,-0.31,0.79,-0.43
18149,2025-09-16T15:05:56.192,-0.31,0.79,-0.43
18150,2025-09-16T15:05:56.202,-0.37,0.79,-0.43
18151,2025-09-16T15:05:56.211,-0.43,0.79,-0.43
18152,2025-09-16T15:05:56.221,-0.37,0.79,-0.37
18153,2025-09-16T15:05:56.231,-0.37,0.85,-0.43
18154,2025-09-16T15:05:56.241,-0.37,0.85,-0.37
18155,2025-09-16T15:05:56.250,-0.37,0.79,-0.37
18156,2025-09-16T15:05:56.260,-0.24,0.79,-0.37
18157,2025-09-16T15:05:56.270,-0.31,0.79,-0.31
18158,2025-09-16T15:05:56.280,-0.24,0.85,-0.37
18159,2025-09-16T15:05:56.290,-0.31,0.79,-0.37
18160,2025-09-16T15:05:56.300,-0.37,0.85,-0.37
18161,2025-09-16T15:05:56.310,-0.31,0.79,-0.37
18162,2025-09-16T15:05:56.320,-0.31,0.79,-0.37
18163,2025-09-16T15:05:56.329,-0.31,0.79,-0.37
18164,2025-09-16T15:05:56.339,-0.31,0.79,-0.43
18165,2025-09-16T15:05:56.349,-0.37,0.79,-0.43
18166,2025-09-16T15:05:56.359,-0.37,0.79,-0.43
18167,2025-09-16T15:05:56.369,-0.37,0.73,-0.43
18168,2025-09-16T15:05:56.379,-0.43,0.79,-0.43
18169,2025-09-16T15:05:56.388,-0.37,0.79,-0.43
18170,2025-09-16T15:05:56.398,-0.31,0.79,-0.43
18171,2025-09-16T15:05:56.407,-0.43,0.85,-0.43
18172,2025-09-16T15:05:56.417,-0.31,0.79,-0.43
18173,2025-09-16T15:05:56.427,-0.31,0.79,-0.37
18174,2025-09-16T15:05:56.436,-0.43,0.79,-0.37
18175,2025-09-16T15:05:56.447,-0.31,0.79,-0.37
18176,2025-09-16T15:05:56.456,-0.37,0.85,-0.37
18177,2025-09-16T15:05:56.466,-0.37,0.85,-0.37
18178,2025-09-16T15:05:56.476,-0.24,0.85,-0.37
18179,2025-09-16T15:05:56.486,-0.18,0.79,-0.37
18180,2025-09-16T15:05:56.496,-0.31,0.85,-0.37
18181,2025-09-16T15:05:56.504,-0.37,0.79,-0.37
18182,2025-09-16T15:05:56.515,-0.37,0.79,-0.37
18183,2025-09-16T15:05:56.525,-0.37,0.79,-0.43
18184,2025-09-16T15:05:56.535,-0.49,0.85,-0.43
18185,2025-09-16T15:05:56.545,-0.43,0.79,-0.37
18186,2025-09-16T15:05:56.554,-0.37,0.85,-0.37
18187,2025-09-16T15:05:56.564,-0.37,0.85,-0.43
18188,2025-09-16T15:05:56.574,-0.37,0.79,-0.37
18189,2025-09-16T15:05:56.584,-0.24,0.79,-0.43
18190,2025-09-16T15:05:56.594,-0.37,0.79,-0.43
18191,2025-09-16T15:05:56.603,-0.31,0.79,-0.43
18192,2025-09-16T15:05:56.613,-0.31,0.79,-0.43
18193,2025-09-16T15:05:56.622,-0.49,0.79,-0.43
18194,2025-09-16T15:05:56.632,-0.43,0.79,-0.43
18195,2025-09-16T15:05:56.642,-0.37,0.79,-0.43
18196,2025-09-16T15:05:56.652,-0.37,0.79,-0.37
18197,2025-09-16T15:05:56.662,-0.37,0.79,-0.43
18198,2025-09-16T15:05:56.671,-0.37,0.79,-0.37
18199,2025-09-16T15:05:56.681,-0.37,0.85,-0.43
18200,2025-09-16T15:05:56.691,-0.31,0.79,-0.37
18201,2025-09-16T15:05:56.702,-0.24,0.79,-0.37
18202,2025-09-16T15:05:56.711,-0.37,0.79,-0.37
18203,2025-09-16T15:05:56.720,-0.24,0.73,-0.37
18204,2025-09-16T15:05:56.730,-0.24,0.79,-0.37
18205,2025-09-16T15:05:56.740,-0.37,0.79,-0.37
18206,2025-09-16T15:05:56.750,-0.31,0.79,-0.37
18207,2025-09-16T15:05:56.760,-0.31,0.79,-0.37
18208,2025-09-16T15:05:56.769,-0.37,0.85,-0.43
18209,2025-09-16T15:05:56.779,-0.43,0.79,-0.37
18210,2025-09-16T15:05:56.789,-0.37,0.79,-0.43
18211,2025-09-16T15:05:56.799,-0.37,0.79,-0.43
18212,2025-09-16T15:05:56.809,-0.43,0.79,-0.49
18213,2025-09-16T15:05:56.818,-0.37,0.79,-0.43
18214,2025-09-16T15:05:56.828,-0.37,0.79,-0.43
18215,2025-09-16T15:05:56.838,-0.43,0.73,-0.43
18216,2025-09-16T15:05:56.848,-0.31,0.73,-0.43
18217,2025-09-16T15:05:56.857,-0.24,0.73,-0.43
18218,2025-09-16T15:05:56.867,-0.31,0.73,-0.43
18219,2025-09-16T15:05:56.877,-0.31,0.73,-0.37
18220,2025-09-16T15:05:56.887,-0.24,0.79,-0.43
18221,2025-09-16T15:05:56.897,-0.43,0.79,-0.43
18222,2025-09-16T15:05:56.906,-0.43,0.85,-0.37
18223,2025-09-16T15:05:56.917,-0.37,0.79,-0.37
18224,2025-09-16T15:05:56.926,-0.37,0.79,-0.37
18225,2025-09-16T15:05:56.936,-0.31,0.79,-0.31
18226,2025-09-16T15:05:56.946,-0.24,0.85,-0.37
18227,2025-09-16T15:05:56.956,-0.37,0.85,-0.31
18228,2025-09-16T15:05:56.966,-0.31,0.79,-0.37
18229,2025-09-16T15:05:56.975,-0.37,0.79,-0.37
18230,2025-09-16T15:05:56.985,-0.43,0.85,-0.37
18231,2025-09-16T15:05:56.995,-0.37,0.79,-0.43
18232,2025-09-16T15:05:57.005,-0.37,0.79,-0.43
18233,2025-09-16T15:05:57.014,-0.37,0.79,-0.43
18234,2025-09-16T15:05:57.024,-0.37,0.79,-0.43
18235,2025-09-16T15:05:57.034,-0.37,0.79,-0.43
18236,2025-09-16T15:05:57.043,-0.31,0.79,-0.43
18237,2025-09-16T15:05:57.053,-0.31,0.79,-0.43
18238,2025-09-16T15:05:57.063,-0.31,0.79,-0.43
18239,2025-09-16T15:05:57.073,-0.37,0.79,-0.43
18240,2025-09-16T15:05:57.083,-0.49,0.79,-0.43
18241,2025-09-16T15:05:57.092,-0.37,0.79,-0.37
18242,2025-09-16T15:05:57.102,-0.43,0.79,-0.43
18243,2025-09-16T15:05:57.112,-0.37,0.79,-0.43
18244,2025-09-16T15:05:57.122,-0.31,0.79,-0.37
18245,2025-09-16T15:05:57.131,-0.31,0.79,-0.37
18246,2025-09-16T15:05:57.141,-0.37,0.79,-0.31
18247,2025-09-16T15:05:57.151,-0.24,0.79,-0.37
18248,2025-09-16T15:05:57.161,-0.31,0.79,-0.31
18249,2025-09-16T15:05:57.171,-0.31,0.79,-0.37
18250,2025-09-16T15:05:57.181,-0.37,0.79,-0.37
18251,2025-09-16T15:05:57.190,-0.31,0.73,-0.37
18252,2025-09-16T15:05:57.200,-0.37,0.79,-0.37
18253,2025-09-16T15:05:57.211,-0.37,0.79,-0.43
18254,2025-09-16T15:05:57.220,-0.37,0.85,-0.37
18255,2025-09-16T15:05:57.229,-0.37,0.79,-0.37
18256,2025-09-16T15:05:57.240,-0.37,0.79,-0.43
18257,2025-09-16T15:05:57.250,-0.24,0.79,-0.43
18258,2025-09-16T15:05:57.259,-0.37,0.79,-0.43
18259,2025-09-16T15:05:57.269,-0.37,0.79,-0.43
18260,2025-09-16T15:05:57.279,-0.31,0.79,-0.43
18261,2025-09-16T15:05:57.289,-0.43,0.79,-0.43
18262,2025-09-16T15:05:57.298,-0.43,0.79,-0.43
18263,2025-09-16T15:05:57.308,-0.37,0.79,-0.43
18264,2025-09-16T15:05:57.318,-0.31,0.79,-0.37
18265,2025-09-16T15:05:57.328,-0.31,0.79,-0.43
18266,2025-09-16T15:05:57.338,-0.37,0.85,-0.37
18267,2025-09-16T15:05:57.348,-0.37,0.85,-0.37
18268,2025-09-16T15:05:57.357,-0.43,0.85,-0.37
18269,2025-09-16T15:05:57.367,-0.31,0.79,-0.37
18270,2025-09-16T15:05:57.377,-0.37,0.79,-0.37
18271,2025-09-16T15:05:57.387,-0.24,0.79,-0.37
18272,2025-09-16T15:05:57.396,-0.31,0.79,-0.37
18273,2025-09-16T15:05:57.406,-0.24,0.79,-0.37
18274,2025-09-16T15:05:57.416,-0.31,0.79,-0.37
18275,2025-09-16T15:05:57.425,-0.37,0.85,-0.37
18276,2025-09-16T15:05:57.435,-0.43,0.85,-0.43
18277,2025-09-16T15:05:57.445,-0.43,0.85,-0.37
18278,2025-09-16T15:05:57.455,-0.43,0.85,-0.43
18279,2025-09-16T15:05:57.464,-0.37,0.79,-0.37
18280,2025-09-16T15:05:57.474,-0.24,0.79,-0.43
18281,2025-09-16T15:05:57.484,-0.31,0.79,-0.43
18282,2025-09-16T15:05:57.494,-0.24,0.79,-0.43
18283,2025-09-16T15:05:57.504,-0.37,0.79,-0.43
18284,2025-09-16T15:05:57.514,-0.37,0.79,-0.43
18285,2025-09-16T15:05:57.523,-0.43,0.73,-0.37
18286,2025-09-16T15:05:57.533,-0.37,0.73,-0.37
18287,2025-09-16T15:05:57.543,-0.43,0.79,-0.43
18288,2025-09-16T15:05:57.553,-0.37,0.79,-0.43
18289,2025-09-16T15:05:57.562,-0.37,0.79,-0.37
18290,2025-09-16T15:05:57.572,-0.31,0.79,-0.31
18291,2025-09-16T15:05:57.582,-0.37,0.85,-0.31
18292,2025-09-16T15:05:57.591,-0.24,0.85,-0.37
18293,2025-09-16T15:05:57.602,-0.31,0.85,-0.31
18294,2025-09-16T15:05:57.611,-0.24,0.85,-0.37
18295,2025-09-16T15:05:57.621,-0.31,0.85,-0.43
18296,2025-09-16T15:05:57.631,-0.31,0.85,-0.37
18297,2025-09-16T15:05:57.640,-0.37,0.85,-0.43
18298,2025-09-16T15:05:57.651,-0.31,0.79,-0.43
18299,2025-09-16T15:05:57.660,-0.43,0.79,-0.49
18300,2025-09-16T15:05:57.670,-0.61,0.85,-0.49
18301,2025-09-16T15:05:57.680,-0.49,0.79,-0.49
18302,2025-09-16T15:05:57.690,-0.49,0.79,-0.49
18303,2025-09-16T15:05:57.700,-0.37,0.79,-0.49
18304,2025-09-16T15:05:57.709,-0.31,0.79,-0.43
18305,2025-09-16T15:05:57.719,-0.24,0.73,-0.43
18306,2025-09-16T15:05:57.729,-0.24,0.73,-0.37
18307,2025-09-16T15:05:57.739,-0.24,0.79,-0.37
18308,2025-09-16T15:05:57.749,-0.37,0.79,-0.37
18309,2025-09-16T15:05:57.758,-0.31,0.79,-0.31
18310,2025-09-16T15:05:57.768,-0.31,0.79,-0.31
18311,2025-09-16T15:05:57.778,-0.31,0.79,-0.31
18312,2025-09-16T15:05:57.788,-0.31,0.79,-0.31
18313,2025-09-16T15:05:57.798,-0.37,0.79,-0.31
18314,2025-09-16T15:05:57.807,-0.37,0.79,-0.31
18315,2025-09-16T15:05:57.817,-0.31,0.85,-0.31
18316,2025-09-16T15:05:57.827,-0.31,0.79,-0.37
18317,2025-09-16T15:05:57.837,-0.37,0.79,-0.37
18318,2025-09-16T15:05:57.846,-0.37,0.79,-0.43
18319,2025-09-16T15:05:57.856,-0.31,0.73,-0.43
18320,2025-09-16T15:05:57.866,-0.43,0.79,-0.49
18321,2025-09-16T15:05:57.876,-0.49,0.85,-0.49
18322,2025-09-16T15:05:57.885,-0.37,0.79,-0.43
18323,2025-09-16T15:05:57.895,-0.49,0.85,-0.49
18324,2025-09-16T15:05:57.904,-0.43,0.85,-0.43
18325,2025-09-16T15:05:57.915,-0.31,0.79,-0.43
18326,2025-09-16T15:05:57.925,-0.37,0.79,-0.43
18327,2025-09-16T15:05:57.935,-0.31,0.79,-0.37
18328,2025-09-16T15:05:57.945,-0.24,0.73,-0.37
18329,2025-09-16T15:05:57.955,-0.31,0.73,-0.37
18330,2025-09-16T15:05:57.964,-0.37,0.73,-0.37
18331,2025-09-16T15:05:57.974,-0.37,0.79,-0.37
18332,2025-09-16T15:05:57.984,-0.43,0.79,-0.31
18333,2025-09-16T15:05:57.994,-0.31,0.73,-0.31
18334,2025-09-16T15:05:58.003,-0.37,0.79,-0.31
18335,2025-09-16T15:05:58.013,-0.24,0.79,-0.37
18336,2025-09-16T15:05:58.023,-0.24,0.85,-0.37
18337,2025-09-16T15:05:58.033,-0.31,0.79,-0.37
18338,2025-09-16T15:05:58.042,-0.37,0.79,-0.37
18339,2025-09-16T15:05:58.052,-0.43,0.79,-0.43
18340,2025-09-16T15:05:58.062,-0.43,0.79,-0.43
18341,2025-09-16T15:05:58.072,-0.49,0.79,-0.49
18342,2025-09-16T15:05:58.081,-0.55,0.79,-0.49
18343,2025-09-16T15:05:58.091,-0.43,0.79,-0.43
18344,2025-09-16T15:05:58.101,-0.37,0.79,-0.43
18345,2025-09-16T15:05:58.111,-0.37,0.79,-0.43
18346,2025-09-16T15:05:58.121,-0.31,0.85,-0.43
18347,2025-09-16T15:05:58.130,-0.12,0.79,-0.37
18348,2025-09-16T15:05:58.140,-0.18,0.79,-0.37
18349,2025-09-16T15:05:58.150,-0.31,0.85,-0.37
18350,2025-09-16T15:05:58.160,-0.31,0.79,-0.37
18351,2025-09-16T15:05:58.170,-0.43,0.79,-0.43
18352,2025-09-16T15:05:58.179,-0.49,0.79,-0.43
18353,2025-09-16T15:05:58.189,-0.49,0.79,-0.43
18354,2025-09-16T15:05:58.199,-0.49,0.79,-0.43
18355,2025-09-16T15:05:58.208,-0.37,0.79,-0.43
18356,2025-09-16T15:05:58.219,-0.43,0.79,-0.43
18357,2025-09-16T15:05:58.229,-0.37,0.73,-0.49
18358,2025-09-16T15:05:58.238,-0.31,0.79,-0.43
18359,2025-09-16T15:05:58.248,-0.37,0.85,-0.43
18360,2025-09-16T15:05:58.258,-0.43,0.85,-0.43
18361,2025-09-16T15:05:58.268,-0.37,0.85,-0.43
18362,2025-09-16T15:05:58.278,-0.31,0.85,-0.37
18363,2025-09-16T15:05:58.287,-0.37,0.85,-0.31
18364,2025-09-16T15:05:58.297,-0.24,0.79,-0.31
18365,2025-09-16T15:05:58.307,-0.18,0.79,-0.31
18366,2025-09-16T15:05:58.316,-0.24,0.79,-0.31
18367,2025-09-16T15:05:58.326,-0.18,0.79,-0.31
18368,2025-09-16T15:05:58.336,-0.31,0.79,-0.37
18369,2025-09-16T15:05:58.346,-0.31,0.85,-0.37
18370,2025-09-16T15:05:58.356,-0.37,0.85,-0.37
18371,2025-09-16T15:05:58.366,-0.37,0.85,-0.43
18372,2025-09-16T15:05:58.375,-0.37,0.79,-0.43
18373,2025-09-16T15:05:58.385,-0.43,0.79,-0.49
18374,2025-09-16T15:05:58.395,-0.67,0.85,-0.49
18375,2025-09-16T15:05:58.404,-0.37,0.79,-0.49
18376,2025-09-16T15:05:58.414,-0.61,0.85,-0.49
18377,2025-09-16T15:05:58.424,-0.43,0.85,-0.55
18378,2025-09-16T15:05:58.434,-0.37,0.79,-0.43
18379,2025-09-16T15:05:58.444,-0.24,0.79,-0.43
18380,2025-09-16T15:05:58.454,-0.37,0.79,-0.43
18381,2025-09-16T15:05:58.463,-0.12,0.73,-0.37
18382,2025-09-16T15:05:58.473,-0.18,0.79,-0.24
18383,2025-09-16T15:05:58.482,-0.12,0.73,-0.24
18384,2025-09-16T15:05:58.493,-0.24,0.79,-0.24
18385,2025-09-16T15:05:58.502,-0.18,0.73,-0.24
18386,2025-09-16T15:05:58.512,-0.37,0.79,-0.31
18387,2025-09-16T15:05:58.522,-0.79,0.85,-0.37
18388,2025-09-16T15:05:58.532,-0.49,0.85,-0.37
18389,2025-09-16T15:05:58.541,-0.43,0.79,-0.43
18390,2025-09-16T15:05:58.551,-0.43,0.79,-0.43
18391,2025-09-16T15:05:58.561,-0.24,0.79,-0.43
18392,2025-09-16T15:05:58.571,-0.31,0.73,-0.43
18393,2025-09-16T15:05:58.581,-0.31,0.79,-0.49
18394,2025-09-16T15:05:58.590,-0.31,0.79,-0.49
18395,2025-09-16T15:05:58.601,-0.43,0.79,-0.43
18396,2025-09-16T15:05:58.611,-0.49,0.79,-0.49
18397,2025-09-16T15:05:58.620,-0.43,0.79,-0.43
18398,2025-09-16T15:05:58.630,-0.24,0.79,-0.37
18399,2025-09-16T15:05:58.640,-0.31,0.79,-0.37
18400,2025-09-16T15:05:58.650,-0.24,0.79,-0.37
18401,2025-09-16T15:05:58.660,-0.18,0.73,-0.31
18402,2025-09-16T15:05:58.669,-0.31,0.79,-0.31
18403,2025-09-16T15:05:58.679,-0.31,0.79,-0.37
18404,2025-09-16T15:05:58.689,-0.43,0.79,-0.37
18405,2025-09-16T15:05:58.699,-0.49,0.79,-0.43
18406,2025-09-16T15:05:58.708,-0.43,0.79,-0.37
18407,2025-09-16T15:05:58.718,-0.37,0.79,-0.43
18408,2025-09-16T15:05:58.728,-0.37,0.85,-0.43
18409,2025-09-16T15:05:58.738,-0.31,0.85,-0.43
18410,2025-09-16T15:05:58.748,-0.31,0.85,-0.43
18411,2025-09-16T15:05:58.758,-0.31,0.85,-0.43
18412,2025-09-16T15:05:58.767,-0.31,0.85,-0.43
18413,2025-09-16T15:05:58.777,-0.49,0.85,-0.43
18414,2025-09-16T15:05:58.786,-0.49,0.85,-0.43
18415,2025-09-16T15:05:58.796,-0.43,0.85,-0.43
18416,2025-09-16T15:05:58.806,-0.43,0.85,-0.43
18417,2025-09-16T15:05:58.816,-0.37,0.79,-0.37
18418,2025-09-16T15:05:58.826,-0.24,0.79,-0.37
18419,2025-09-16T15:05:58.836,-0.24,0.79,-0.37
18420,2025-09-16T15:05:58.845,-0.18,0.79,-0.37
18421,2025-09-16T15:05:58.855,-0.37,0.79,-0.43
18422,2025-09-16T15:05:58.865,-0.43,0.79,-0.43
18423,2025-09-16T15:05:58.875,-0.37,0.73,-0.37
18424,2025-09-16T15:05:58.885,-0.43,0.79,-0.43
18425,2025-09-16T15:05:58.894,-0.37,0.79,-0.43
18426,2025-09-16T15:05:58.904,-0.43,0.79,-0.43
18427,2025-09-16T15:05:58.913,-0.31,0.85,-0.43
18428,2025-09-16T15:05:58.923,-0.31,0.79,-0.37
18429,2025-09-16T15:05:58.933,-0.37,0.79,-0.43
18430,2025-09-16T15:05:58.943,-0.49,0.79,-0.43
18431,2025-09-16T15:05:58.953,-0.37,0.79,-0.43
18432,2025-09-16T15:05:58.962,-0.43,0.85,-0.43
18433,2025-09-16T15:05:58.972,-0.37,0.79,-0.37
18434,2025-09-16T15:05:58.982,-0.31,0.79,-0.37
18435,2025-09-16T15:05:58.992,-0.24,0.79,-0.37
18436,2025-09-16T15:05:59.002,-0.24,0.85,-0.31
18437,2025-09-16T15:05:59.012,-0.24,0.85,-0.37
18438,2025-09-16T15:05:59.022,-0.37,0.85,-0.37
18439,2025-09-16T15:05:59.031,-0.31,0.79,-0.37
18440,2025-09-16T15:05:59.041,-0.43,0.79,-0.37
18441,2025-09-16T15:05:59.051,-0.37,0.79,-0.43
18442,2025-09-16T15:05:59.060,-0.43,0.79,-0.43
18443,2025-09-16T15:05:59.070,-0.43,0.73,-0.43
18444,2025-09-16T15:05:59.080,-0.37,0.73,-0.43
18445,2025-09-16T15:05:59.090,-0.37,0.79,-0.43
18446,2025-09-16T15:05:59.100,-0.37,0.79,-0.49
18447,2025-09-16T15:05:59.109,-0.37,0.79,-0.49
18448,2025-09-16T15:05:59.119,-0.49,0.79,-0.43
18449,2025-09-16T15:05:59.129,-0.37,0.79,-0.43
18450,2025-09-16T15:05:59.139,-0.37,0.79,-0.43
18451,2025-09-16T15:05:59.149,-0.31,0.85,-0.37
18452,2025-09-16T15:05:59.159,-0.24,0.79,-0.37
18453,2025-09-16T15:05:59.169,-0.18,0.85,-0.37
18454,2025-09-16T15:05:59.178,-0.24,0.79,-0.31
18455,2025-09-16T15:05:59.188,-0.12,0.79,-0.37
18456,2025-09-16T15:05:59.197,-0.37,0.79,-0.37
18457,2025-09-16T15:05:59.208,-0.43,0.79,-0.37
18458,2025-09-16T15:05:59.217,-0.49,0.79,-0.37
18459,2025-09-16T15:05:59.227,-0.43,0.79,-0.37
18460,2025-09-16T15:05:59.237,-0.43,0.79,-0.43
18461,2025-09-16T15:05:59.247,-0.37,0.79,-0.43
18462,2025-09-16T15:05:59.256,-0.31,0.79,-0.43
18463,2025-09-16T15:05:59.266,-0.18,0.79,-0.43
18464,2025-09-16T15:05:59.276,-0.31,0.79,-0.43
18465,2025-09-16T15:05:59.287,-0.37,0.79,-0.43
18466,2025-09-16T15:05:59.296,-0.31,0.79,-0.37
18467,2025-09-16T15:05:59.306,-0.31,0.73,-0.37
18468,2025-09-16T15:05:59.315,-0.31,0.79,-0.43
18469,2025-09-16T15:05:59.325,-0.43,0.79,-0.43
18470,2025-09-16T15:05:59.335,-0.37,0.73,-0.43
18471,2025-09-16T15:05:59.344,-0.37,0.79,-0.43
18472,2025-09-16T15:05:59.354,-0.37,0.79,-0.43
18473,2025-09-16T15:05:59.364,-0.37,0.85,-0.37
18474,2025-09-16T15:05:59.375,-0.31,0.85,-0.37
18475,2025-09-16T15:05:59.384,-0.31,0.79,-0.37
18476,2025-09-16T15:05:59.393,-0.24,0.79,-0.37
18477,2025-09-16T15:05:59.404,-0.24,0.85,-0.37
18478,2025-09-16T15:05:59.413,-0.43,0.85,-0.37
18479,2025-09-16T15:05:59.423,-0.37,0.85,-0.37
18480,2025-09-16T15:05:59.433,-0.49,0.85,-0.43
18481,2025-09-16T15:05:59.443,-0.43,0.85,-0.43
18482,2025-09-16T15:05:59.452,-0.37,0.79,-0.43
18483,2025-09-16T15:05:59.462,-0.31,0.79,-0.43
18484,2025-09-16T15:05:59.472,-0.24,0.79,-0.37
18485,2025-09-16T15:05:59.481,-0.24,0.79,-0.37
18486,2025-09-16T15:05:59.491,-0.24,0.79,-0.37
18487,2025-09-16T15:05:59.501,-0.31,0.79,-0.43
18488,2025-09-16T15:05:59.511,-0.55,0.79,-0.43
18489,2025-09-16T15:05:59.521,-0.49,0.79,-0.43
18490,2025-09-16T15:05:59.530,-0.49,0.79,-0.37
18491,2025-09-16T15:05:59.540,-0.43,0.79,-0.43
18492,2025-09-16T15:05:59.550,-0.43,0.79,-0.43
18493,2025-09-16T15:05:59.560,-0.12,0.73,-0.43
18494,2025-09-16T15:05:59.570,-0.24,0.79,-0.37
18495,2025-09-16T15:05:59.579,-0.24,0.79,-0.37
18496,2025-09-16T15:05:59.589,-0.24,0.73,-0.37
18497,2025-09-16T15:05:59.599,-0.37,0.79,-0.43
18498,2025-09-16T15:05:59.609,-0.49,0.79,-0.37
18499,2025-09-16T15:05:59.619,-0.31,0.79,-0.37
