sample,timestamp,gyro_x,gyro_y,gyro_z
500,2025-09-16T15:03:03.433,-0.31,0.92,-0.37
501,2025-09-16T15:03:03.433,-0.37,0.92,-0.43
502,2025-09-16T15:03:03.433,-0.43,0.92,-0.43
503,2025-09-16T15:03:03.440,-0.43,0.98,-0.49
504,2025-09-16T15:03:03.450,-0.49,0.98,-0.49
505,2025-09-16T15:03:03.459,-0.43,1.04,-0.43
506,2025-09-16T15:03:03.470,-0.43,1.1,-0.37
507,2025-09-16T15:03:03.479,-0.37,1.1,-0.31
508,2025-09-16T15:03:03.489,-0.31,1.04,-0.24
509,2025-09-16T15:03:03.499,-0.31,1.04,-0.18
510,2025-09-16T15:03:03.509,-0.31,0.98,-0.18
511,2025-09-16T15:03:03.519,-0.24,0.92,-0.18
512,2025-09-16T15:03:03.528,-0.31,0.85,-0.18
513,2025-09-16T15:03:03.538,-0.37,0.79,-0.24
514,2025-09-16T15:03:03.548,-0.37,0.79,-0.24
515,2025-09-16T15:03:03.558,-0.37,0.73,-0.31
516,2025-09-16T15:03:03.568,-0.43,0.73,-0.43
517,2025-09-16T15:03:03.577,-0.49,0.79,-0.49
518,2025-09-16T15:03:03.587,-0.55,0.79,-0.43
519,2025-09-16T15:03:03.597,-0.55,0.79,-0.49
520,2025-09-16T15:03:03.607,-0.55,0.85,-0.43
521,2025-09-16T15:03:03.616,-0.55,0.85,-0.37
522,2025-09-16T15:03:03.626,-0.55,0.85,-0.24
523,2025-09-16T15:03:03.636,-0.49,0.85,-0.18
524,2025-09-16T15:03:03.646,-0.37,0.85,0.0
525,2025-09-16T15:03:03.656,-0.31,0.79,0.06
526,2025-09-16T15:03:03.665,-0.18,0.67,0.06
527,2025-09-16T15:03:03.675,-0.12,0.61,0.06
528,2025-09-16T15:03:03.685,-0.06,0.55,0.0
529,2025-09-16T15:03:03.695,0.0,0.49,-0.06
530,2025-09-16T15:03:03.704,0.0,0.43,-0.12
531,2025-09-16T15:03:03.714,0.0,0.43,-0.18
532,2025-09-16T15:03:03.724,-0.06,0.43,-0.24
533,2025-09-16T15:03:03.734,-0.12,0.37,-0.31
534,2025-09-16T15:03:03.743,-0.12,0.43,-0.31
535,2025-09-16T15:03:03.753,-0.12,0.43,-0.31
536,2025-09-16T15:03:03.763,-0.18,0.43,-0.24
537,2025-09-16T15:03:03.773,-0.24,0.43,-0.18
538,2025-09-16T15:03:03.782,-0.31,0.43,-0.12
539,2025-09-16T15:03:03.792,-0.24,0.43,-0.06
540,2025-09-16T15:03:03.802,-0.18,0.43,0.0
541,2025-09-16T15:03:03.812,-0.12,0.43,0.06
542,2025-09-16T15:03:03.821,-0.12,0.43,0.0
543,2025-09-16T15:03:03.832,-0.06,0.37,0.0
544,2025-09-16T15:03:03.841,0.0,0.37,-0.12
545,2025-09-16T15:03:03.851,0.06,0.37,-0.18
546,2025-09-16T15:03:03.860,0.12,0.31,-0.18
547,2025-09-16T15:03:03.871,0.12,0.24,-0.24
548,2025-09-16T15:03:03.881,0.12,0.24,-0.24
549,2025-09-16T15:03:03.891,0.12,0.24,-0.31
550,2025-09-16T15:03:03.901,0.12,0.24,-0.31
551,2025-09-16T15:03:03.910,0.12,0.24,-0.31
552,2025-09-16T15:03:03.920,0.12,0.31,-0.18
553,2025-09-16T15:03:03.930,0.12,0.31,-0.12
554,2025-09-16T15:03:03.939,0.06,0.37,-0.12
555,2025-09-16T15:03:03.950,0.18,0.31,0.0
556,2025-09-16T15:03:03.959,0.24,0.37,-0.06
557,2025-09-16T15:03:03.969,0.0,0.37,-0.18
558,2025-09-16T15:03:03.979,-0.06,0.37,-0.31
559,2025-09-16T15:03:03.989,0.0,0.37,-0.37
560,2025-09-16T15:03:03.998,-0.06,0.37,-0.37
561,2025-09-16T15:03:04.008,0.0,0.43,-0.43
562,2025-09-16T15:03:04.017,0.06,0.43,-0.43
563,2025-09-16T15:03:04.027,0.06,0.43,-0.37
564,2025-09-16T15:03:04.037,0.18,0.43,-0.31
565,2025-09-16T15:03:04.047,0.31,0.49,-0.24
566,2025-09-16T15:03:04.057,0.37,0.49,-0.12
567,2025-09-16T15:03:04.066,0.37,0.43,0.0
568,2025-09-16T15:03:04.076,0.67,0.43,0.06
569,2025-09-16T15:03:04.086,0.55,0.37,0.06
570,2025-09-16T15:03:04.095,0.49,0.37,0.0
571,2025-09-16T15:03:04.106,0.43,0.31,-0.06
572,2025-09-16T15:03:04.115,0.31,0.31,-0.06
573,2025-09-16T15:03:04.125,0.24,0.24,-0.12
574,2025-09-16T15:03:04.135,0.12,0.24,-0.18
575,2025-09-16T15:03:04.144,0.0,0.37,-0.24
576,2025-09-16T15:03:04.154,-0.06,0.43,-0.24
577,2025-09-16T15:03:04.165,-0.06,0.49,-0.37
578,2025-09-16T15:03:04.175,-0.06,0.55,-0.43
579,2025-09-16T15:03:04.184,-0.06,0.67,-0.49
580,2025-09-16T15:03:04.194,-0.06,0.79,-0.55
581,2025-09-16T15:03:04.203,-0.06,0.85,-0.49
582,2025-09-16T15:03:04.213,-0.06,0.85,-0.43
583,2025-09-16T15:03:04.223,0.0,0.92,-0.37
584,2025-09-16T15:03:04.233,0.0,0.85,-0.31
585,2025-09-16T15:03:04.243,-0.06,0.85,-0.37
586,2025-09-16T15:03:04.252,-0.18,0.79,-0.37
587,2025-09-16T15:03:04.262,-0.12,0.73,-0.24
588,2025-09-16T15:03:04.272,-0.12,0.67,-0.24
589,2025-09-16T15:03:04.282,-0.18,0.67,-0.18
590,2025-09-16T15:03:04.292,-0.12,0.67,-0.18
591,2025-09-16T15:03:04.301,-0.06,0.73,-0.12
592,2025-09-16T15:03:04.311,0.06,0.79,-0.12
593,2025-09-16T15:03:04.321,0.18,0.79,-0.06
594,2025-09-16T15:03:04.331,0.24,0.85,-0.06
595,2025-09-16T15:03:04.341,0.31,0.92,-0.18
596,2025-09-16T15:03:04.350,0.31,0.85,-0.18
597,2025-09-16T15:03:04.360,0.18,0.79,-0.31
598,2025-09-16T15:03:04.370,0.24,0.79,-0.31
599,2025-09-16T15:03:04.379,0.06,0.73,-0.31
600,2025-09-16T15:03:04.389,-0.06,0.67,-0.37
601,2025-09-16T15:03:04.399,-0.24,0.73,-0.49
602,2025-09-16T15:03:04.409,-0.43,0.73,-0.43
603,2025-09-16T15:03:04.419,-0.55,0.79,-0.43
604,2025-09-16T15:03:04.429,-0.61,0.79,-0.43
605,2025-09-16T15:03:04.439,-0.79,0.85,-0.43
606,2025-09-16T15:03:04.448,-0.85,0.98,-0.49
607,2025-09-16T15:03:04.458,-0.79,1.1,-0.49
608,2025-09-16T15:03:04.468,-0.79,1.16,-0.49
609,2025-09-16T15:03:04.478,-0.73,1.22,-0.55
610,2025-09-16T15:03:04.488,-0.67,1.28,-0.55
611,2025-09-16T15:03:04.497,-0.55,1.28,-0.55
612,2025-09-16T15:03:04.507,-0.43,1.28,-0.49
613,2025-09-16T15:03:04.517,-0.37,1.22,-0.49
614,2025-09-16T15:03:04.527,-0.24,1.1,-0.43
615,2025-09-16T15:03:04.537,-0.18,0.98,-0.31
616,2025-09-16T15:03:04.546,-0.12,0.85,-0.31
617,2025-09-16T15:03:04.556,-0.18,0.73,-0.24
618,2025-09-16T15:03:04.565,-0.18,0.67,-0.18
619,2025-09-16T15:03:04.575,-0.24,0.67,-0.18
620,2025-09-16T15:03:04.585,-0.24,0.67,-0.18
621,2025-09-16T15:03:04.595,-0.31,0.67,-0.18
622,2025-09-16T15:03:04.605,-0.31,0.73,-0.24
623,2025-09-16T15:03:04.614,-0.37,0.79,-0.31
624,2025-09-16T15:03:04.624,-0.37,0.85,-0.31
625,2025-09-16T15:03:04.634,-0.31,0.98,-0.31
626,2025-09-16T15:03:04.644,-0.43,0.98,-0.24
627,2025-09-16T15:03:04.653,-0.31,1.04,-0.24
628,2025-09-16T15:03:04.663,-0.37,0.98,-0.24
629,2025-09-16T15:03:04.673,-0.24,0.98,-0.18
630,2025-09-16T15:03:04.683,-0.37,0.85,-0.18
631,2025-09-16T15:03:04.692,-0.37,0.85,-0.12
632,2025-09-16T15:03:04.703,-0.31,0.79,-0.18
633,2025-09-16T15:03:04.713,-0.31,0.73,-0.18
634,2025-09-16T15:03:04.722,-0.37,0.61,-0.24
635,2025-09-16T15:03:04.732,-0.43,0.67,-0.31
636,2025-09-16T15:03:04.742,-0.37,0.67,-0.31
637,2025-09-16T15:03:04.752,-0.37,0.61,-0.31
638,2025-09-16T15:03:04.761,-0.37,0.67,-0.37
639,2025-09-16T15:03:04.771,-0.31,0.67,-0.37
640,2025-09-16T15:03:04.781,-0.18,0.73,-0.24
641,2025-09-16T15:03:04.790,-0.12,0.73,-0.24
642,2025-09-16T15:03:04.800,-0.06,0.73,-0.18
643,2025-09-16T15:03:04.810,-0.06,0.73,-0.12
644,2025-09-16T15:03:04.820,0.06,0.61,-0.12
645,2025-09-16T15:03:04.831,0.0,0.61,-0.18
646,2025-09-16T15:03:04.839,0.0,0.49,-0.12
647,2025-09-16T15:03:04.849,0.0,0.49,-0.12
648,2025-09-16T15:03:04.859,0.0,0.43,-0.12
649,2025-09-16T15:03:04.869,0.0,0.43,-0.24
650,2025-09-16T15:03:04.879,0.0,0.37,-0.24
651,2025-09-16T15:03:04.889,-0.06,0.37,-0.24
652,2025-09-16T15:03:04.899,0.0,0.37,-0.24
653,2025-09-16T15:03:04.909,0.0,0.37,-0.24
654,2025-09-16T15:03:04.918,0.0,0.43,-0.18
655,2025-09-16T15:03:04.929,0.0,0.37,-0.18
656,2025-09-16T15:03:04.938,0.06,0.37,-0.18
657,2025-09-16T15:03:04.948,0.06,0.43,-0.12
658,2025-09-16T15:03:04.958,0.06,0.37,-0.12
659,2025-09-16T15:03:04.967,0.06,0.37,-0.18
660,2025-09-16T15:03:04.977,0.06,0.37,-0.24
661,2025-09-16T15:03:04.987,0.12,0.37,-0.12
662,2025-09-16T15:03:04.997,0.18,0.37,-0.12
663,2025-09-16T15:03:05.006,0.18,0.37,-0.18
664,2025-09-16T15:03:05.016,0.12,0.31,-0.24
665,2025-09-16T15:03:05.026,0.18,0.37,-0.24
666,2025-09-16T15:03:05.036,0.18,0.37,-0.18
667,2025-09-16T15:03:05.046,0.18,0.31,-0.24
668,2025-09-16T15:03:05.056,0.12,0.31,-0.24
669,2025-09-16T15:03:05.065,0.12,0.24,-0.18
670,2025-09-16T15:03:05.075,0.06,0.24,-0.12
671,2025-09-16T15:03:05.085,0.12,0.31,-0.12
672,2025-09-16T15:03:05.094,0.06,0.37,-0.12
673,2025-09-16T15:03:05.104,0.12,0.31,-0.24
674,2025-09-16T15:03:05.115,0.18,0.37,-0.24
675,2025-09-16T15:03:05.124,0.24,0.43,-0.24
676,2025-09-16T15:03:05.133,0.31,0.49,-0.31
677,2025-09-16T15:03:05.143,0.24,0.49,-0.37
678,2025-09-16T15:03:05.153,0.18,0.49,-0.43
679,2025-09-16T15:03:05.163,0.24,0.43,-0.37
680,2025-09-16T15:03:05.173,0.18,0.43,-0.31
681,2025-09-16T15:03:05.182,0.12,0.37,-0.24
682,2025-09-16T15:03:05.192,0.06,0.37,-0.24
683,2025-09-16T15:03:05.202,0.0,0.37,-0.18
684,2025-09-16T15:03:05.212,0.0,0.31,-0.18
685,2025-09-16T15:03:05.221,0.0,0.31,-0.12
686,2025-09-16T15:03:05.231,0.0,0.37,-0.06
687,2025-09-16T15:03:05.241,0.0,0.43,-0.12
688,2025-09-16T15:03:05.260,0.0,0.55,-0.18
689,2025-09-16T15:03:05.262,0.0,0.61,-0.18
690,2025-09-16T15:03:05.271,0.06,0.67,-0.24
691,2025-09-16T15:03:05.280,0.12,0.67,-0.31
692,2025-09-16T15:03:05.290,0.06,0.73,-0.31
693,2025-09-16T15:03:05.300,0.06,0.79,-0.31
694,2025-09-16T15:03:05.310,0.06,0.73,-0.31
695,2025-09-16T15:03:05.319,0.0,0.73,-0.31
696,2025-09-16T15:03:05.329,-0.18,0.61,-0.24
697,2025-09-16T15:03:05.339,-0.24,0.55,-0.24
698,2025-09-16T15:03:05.348,-0.37,0.55,-0.24
699,2025-09-16T15:03:05.358,-0.37,0.55,-0.24
700,2025-09-16T15:03:05.368,-0.37,0.67,-0.24
701,2025-09-16T15:03:05.378,-0.37,0.73,-0.24
702,2025-09-16T15:03:05.388,-0.37,0.79,-0.24
703,2025-09-16T15:03:05.398,-0.31,0.85,-0.31
704,2025-09-16T15:03:05.408,-0.24,0.98,-0.31
705,2025-09-16T15:03:05.417,-0.18,1.04,-0.37
706,2025-09-16T15:03:05.427,-0.24,1.1,-0.37
707,2025-09-16T15:03:05.437,-0.18,1.1,-0.43
708,2025-09-16T15:03:05.447,-0.24,1.04,-0.37
709,2025-09-16T15:03:05.457,-0.18,0.98,-0.31
710,2025-09-16T15:03:05.466,-0.24,0.98,-0.31
711,2025-09-16T15:03:05.476,-0.31,0.79,-0.31
712,2025-09-16T15:03:05.485,-0.24,0.79,-0.18
713,2025-09-16T15:03:05.495,-0.24,0.79,-0.12
714,2025-09-16T15:03:05.505,-0.24,0.73,-0.06
715,2025-09-16T15:03:05.515,-0.31,0.73,-0.06
716,2025-09-16T15:03:05.524,-0.24,0.79,0.0
717,2025-09-16T15:03:05.534,-0.24,0.85,0.0
718,2025-09-16T15:03:05.544,-0.24,0.92,0.0
719,2025-09-16T15:03:05.555,-0.18,0.98,0.0
720,2025-09-16T15:03:05.565,-0.24,1.04,-0.12
721,2025-09-16T15:03:05.575,-0.24,1.04,-0.24
722,2025-09-16T15:03:05.584,-0.37,1.04,-0.37
723,2025-09-16T15:03:05.594,-0.31,0.98,-0.43
724,2025-09-16T15:03:05.604,-0.37,0.92,-0.49
725,2025-09-16T15:03:05.614,-0.31,0.92,-0.55
726,2025-09-16T15:03:05.624,-0.43,0.92,-0.55
727,2025-09-16T15:03:05.633,-0.43,0.85,-0.55
728,2025-09-16T15:03:05.642,-0.43,0.79,-0.55
729,2025-09-16T15:03:05.652,-0.37,0.79,-0.43
730,2025-09-16T15:03:05.662,-0.43,0.79,-0.43
731,2025-09-16T15:03:05.672,-0.43,0.85,-0.37
732,2025-09-16T15:03:05.682,-0.43,0.85,-0.37
733,2025-09-16T15:03:05.691,-0.49,0.92,-0.43
734,2025-09-16T15:03:05.701,-0.55,0.92,-0.49
735,2025-09-16T15:03:05.711,-0.55,0.92,-0.49
736,2025-09-16T15:03:05.720,-0.55,0.92,-0.49
737,2025-09-16T15:03:05.730,-0.49,0.92,-0.55
738,2025-09-16T15:03:05.740,-0.43,0.92,-0.55
739,2025-09-16T15:03:05.750,-0.31,0.98,-0.55
740,2025-09-16T15:03:05.760,-0.18,0.92,-0.49
741,2025-09-16T15:03:05.769,0.0,0.85,-0.37
742,2025-09-16T15:03:05.780,0.18,0.85,-0.24
743,2025-09-16T15:03:05.790,0.24,0.79,-0.18
744,2025-09-16T15:03:05.799,0.37,0.73,-0.12
745,2025-09-16T15:03:05.809,0.43,0.55,-0.06
746,2025-09-16T15:03:05.819,0.37,0.49,0.0
747,2025-09-16T15:03:05.830,0.24,0.43,-0.06
748,2025-09-16T15:03:05.839,0.12,0.37,-0.06
749,2025-09-16T15:03:05.848,0.0,0.37,-0.12
750,2025-09-16T15:03:05.858,0.0,0.31,-0.18
751,2025-09-16T15:03:05.867,-0.06,0.31,-0.24
752,2025-09-16T15:03:05.877,-0.12,0.43,-0.31
753,2025-09-16T15:03:05.887,-0.12,0.55,-0.37
754,2025-09-16T15:03:05.896,-0.12,0.67,-0.37
755,2025-09-16T15:03:05.907,-0.12,0.73,-0.37
756,2025-09-16T15:03:05.916,-0.12,0.79,-0.43
757,2025-09-16T15:03:05.925,0.0,0.85,-0.37
758,2025-09-16T15:03:05.936,0.0,0.85,-0.31
759,2025-09-16T15:03:05.946,0.0,0.85,-0.24
760,2025-09-16T15:03:05.955,0.0,0.73,-0.24
761,2025-09-16T15:03:05.965,0.0,0.67,-0.24
762,2025-09-16T15:03:05.975,0.0,0.61,-0.31
763,2025-09-16T15:03:05.985,0.0,0.49,-0.31
764,2025-09-16T15:03:05.995,0.0,0.37,-0.31
765,2025-09-16T15:03:06.004,-0.06,0.37,-0.37
766,2025-09-16T15:03:06.014,-0.06,0.31,-0.43
767,2025-09-16T15:03:06.024,-0.06,0.31,-0.43
768,2025-09-16T15:03:06.034,-0.12,0.43,-0.49
769,2025-09-16T15:03:06.044,-0.06,0.43,-0.49
770,2025-09-16T15:03:06.053,-0.06,0.55,-0.49
771,2025-09-16T15:03:06.064,-0.06,0.61,-0.49
772,2025-09-16T15:03:06.074,0.0,0.73,-0.43
773,2025-09-16T15:03:06.083,0.0,0.73,-0.37
774,2025-09-16T15:03:06.093,0.0,0.73,-0.31
775,2025-09-16T15:03:06.103,0.0,0.73,-0.24
776,2025-09-16T15:03:06.112,0.0,0.67,-0.18
777,2025-09-16T15:03:06.122,0.0,0.61,-0.06
778,2025-09-16T15:03:06.132,0.06,0.49,0.0
779,2025-09-16T15:03:06.142,0.06,0.37,0.0
780,2025-09-16T15:03:06.152,0.06,0.37,0.0
781,2025-09-16T15:03:06.161,0.18,0.31,0.0
782,2025-09-16T15:03:06.171,0.18,0.31,-0.06
783,2025-09-16T15:03:06.180,0.18,0.31,-0.12
784,2025-09-16T15:03:06.191,0.12,0.37,-0.18
785,2025-09-16T15:03:06.201,0.12,0.43,-0.18
786,2025-09-16T15:03:06.211,0.06,0.49,-0.24
787,2025-09-16T15:03:06.220,0.0,0.49,-0.31
788,2025-09-16T15:03:06.230,0.12,0.55,-0.24
789,2025-09-16T15:03:06.240,-0.31,0.67,-0.43
790,2025-09-16T15:03:06.250,-0.24,0.67,-0.43
791,2025-09-16T15:03:06.260,-0.37,0.61,-0.31
792,2025-09-16T15:03:06.269,-0.18,0.67,-0.24
793,2025-09-16T15:03:06.278,-0.24,0.67,-0.31
794,2025-09-16T15:03:06.288,-0.31,0.67,-0.24
795,2025-09-16T15:03:06.298,-0.37,0.61,-0.18
796,2025-09-16T15:03:06.308,-0.18,0.61,-0.06
797,2025-09-16T15:03:06.317,0.0,0.61,0.0
798,2025-09-16T15:03:06.328,0.0,0.61,0.0
799,2025-09-16T15:03:06.337,0.0,0.55,-0.12
800,2025-09-16T15:03:06.347,0.06,0.55,-0.24
801,2025-09-16T15:03:06.357,0.06,0.55,-0.37
802,2025-09-16T15:03:06.367,0.0,0.49,-0.43
803,2025-09-16T15:03:06.376,-0.06,0.43,-0.49
804,2025-09-16T15:03:06.386,-0.12,0.49,-0.49
805,2025-09-16T15:03:06.396,-0.31,0.55,-0.61
806,2025-09-16T15:03:06.406,-0.43,0.49,-0.55
807,2025-09-16T15:03:06.415,-0.49,0.55,-0.55
808,2025-09-16T15:03:06.425,-0.55,0.61,-0.49
809,2025-09-16T15:03:06.435,-0.67,0.73,-0.37
810,2025-09-16T15:03:06.446,-0.67,0.79,-0.31
811,2025-09-16T15:03:06.455,-0.67,0.92,-0.12
812,2025-09-16T15:03:06.465,-0.61,0.98,-0.06
813,2025-09-16T15:03:06.475,-0.61,0.98,-0.06
814,2025-09-16T15:03:06.484,-0.55,0.98,-0.12
815,2025-09-16T15:03:06.494,-0.55,1.04,-0.31
816,2025-09-16T15:03:06.504,-0.55,0.98,-0.37
817,2025-09-16T15:03:06.514,-0.55,0.98,-0.49
818,2025-09-16T15:03:06.524,-0.61,0.92,-0.61
819,2025-09-16T15:03:06.533,-0.61,0.92,-0.61
820,2025-09-16T15:03:06.543,-0.55,0.92,-0.55
821,2025-09-16T15:03:06.553,-0.49,0.98,-0.49
822,2025-09-16T15:03:06.563,-0.31,0.98,-0.24
823,2025-09-16T15:03:06.572,-0.12,0.98,0.06
824,2025-09-16T15:03:06.582,0.06,1.04,0.24
825,2025-09-16T15:03:06.592,0.31,0.98,0.37
826,2025-09-16T15:03:06.601,0.37,0.92,0.37
827,2025-09-16T15:03:06.611,0.43,0.85,0.37
828,2025-09-16T15:03:06.621,0.49,0.73,0.18
829,2025-09-16T15:03:06.631,0.37,0.61,0.0
830,2025-09-16T15:03:06.642,0.24,0.49,-0.18
831,2025-09-16T15:03:06.651,0.06,0.43,-0.43
832,2025-09-16T15:03:06.661,-0.18,0.37,-0.61
833,2025-09-16T15:03:06.670,-0.43,0.49,-0.79
834,2025-09-16T15:03:06.680,-0.61,0.55,-0.92
835,2025-09-16T15:03:06.690,-0.85,0.73,-0.92
836,2025-09-16T15:03:06.700,-1.04,0.85,-0.92
837,2025-09-16T15:03:06.710,-1.04,1.04,-0.79
838,2025-09-16T15:03:06.720,-1.1,1.16,-0.61
839,2025-09-16T15:03:06.730,-0.92,1.34,-0.43
840,2025-09-16T15:03:06.740,-0.85,1.4,-0.24
841,2025-09-16T15:03:06.749,-0.61,1.4,-0.12
842,2025-09-16T15:03:06.759,-0.43,1.28,0.0
843,2025-09-16T15:03:06.769,-0.18,1.16,0.12
844,2025-09-16T15:03:06.779,0.18,1.04,0.12
845,2025-09-16T15:03:06.788,0.43,0.79,0.06
846,2025-09-16T15:03:06.798,0.55,0.61,0.0
847,2025-09-16T15:03:06.808,0.67,0.49,-0.18
848,2025-09-16T15:03:06.817,0.61,0.37,-0.31
849,2025-09-16T15:03:06.827,0.67,0.24,-0.43
850,2025-09-16T15:03:06.837,0.61,0.24,-0.49
851,2025-09-16T15:03:06.847,0.49,0.24,-0.55
852,2025-09-16T15:03:06.856,0.31,0.37,-0.61
853,2025-09-16T15:03:06.866,0.06,0.43,-0.55
854,2025-09-16T15:03:06.876,0.06,0.61,-0.37
855,2025-09-16T15:03:06.885,-0.06,0.73,-0.24
856,2025-09-16T15:03:06.896,-0.18,0.79,-0.12
857,2025-09-16T15:03:06.905,-0.18,0.85,0.06
858,2025-09-16T15:03:06.915,-0.06,0.85,0.18
859,2025-09-16T15:03:06.925,-0.06,0.79,0.18
860,2025-09-16T15:03:06.935,0.06,0.79,0.18
861,2025-09-16T15:03:06.945,0.12,0.73,0.06
862,2025-09-16T15:03:06.954,0.18,0.67,-0.12
863,2025-09-16T15:03:06.964,0.24,0.55,-0.37
864,2025-09-16T15:03:06.974,0.24,0.43,-0.55
865,2025-09-16T15:03:06.983,0.24,0.37,-0.73
866,2025-09-16T15:03:06.994,0.24,0.37,-0.85
867,2025-09-16T15:03:07.003,0.18,0.31,-0.85
868,2025-09-16T15:03:07.013,0.06,0.31,-0.79
869,2025-09-16T15:03:07.023,0.0,0.31,-0.67
870,2025-09-16T15:03:07.032,-0.06,0.37,-0.49
871,2025-09-16T15:03:07.042,-0.18,0.37,-0.37
872,2025-09-16T15:03:07.052,-0.24,0.43,-0.24
873,2025-09-16T15:03:07.062,-0.18,0.49,-0.18
874,2025-09-16T15:03:07.073,-0.24,0.55,-0.12
875,2025-09-16T15:03:07.082,-0.24,0.61,-0.12
876,2025-09-16T15:03:07.092,-0.18,0.67,-0.18
877,2025-09-16T15:03:07.102,-0.06,0.67,-0.24
878,2025-09-16T15:03:07.111,0.12,0.67,-0.31
879,2025-09-16T15:03:07.121,0.18,0.73,-0.37
880,2025-09-16T15:03:07.131,0.24,0.61,-0.43
881,2025-09-16T15:03:07.141,0.31,0.55,-0.43
882,2025-09-16T15:03:07.150,0.43,0.43,-0.43
883,2025-09-16T15:03:07.161,0.55,0.37,-0.24
884,2025-09-16T15:03:07.169,0.43,0.24,-0.12
885,2025-09-16T15:03:07.179,0.37,0.18,-0.06
886,2025-09-16T15:03:07.189,0.24,0.06,0.0
887,2025-09-16T15:03:07.199,0.18,0.06,0.12
888,2025-09-16T15:03:07.209,0.06,0.12,0.12
889,2025-09-16T15:03:07.219,-0.06,0.12,0.12
890,2025-09-16T15:03:07.229,-0.12,0.24,0.12
891,2025-09-16T15:03:07.238,-0.18,0.37,0.06
892,2025-09-16T15:03:07.248,-0.18,0.49,0.06
893,2025-09-16T15:03:07.258,-0.18,0.61,-0.06
894,2025-09-16T15:03:07.267,-0.18,0.61,-0.06
895,2025-09-16T15:03:07.277,-0.12,0.67,-0.12
896,2025-09-16T15:03:07.287,-0.06,0.73,-0.12
897,2025-09-16T15:03:07.296,-0.06,0.67,-0.12
898,2025-09-16T15:03:07.307,-0.06,0.61,-0.12
899,2025-09-16T15:03:07.316,-0.12,0.55,-0.18
900,2025-09-16T15:03:07.326,-0.12,0.49,-0.18
901,2025-09-16T15:03:07.336,-0.18,0.49,-0.18
902,2025-09-16T15:03:07.346,-0.18,0.43,-0.24
903,2025-09-16T15:03:07.355,-0.31,0.43,-0.24
904,2025-09-16T15:03:07.365,-0.31,0.43,-0.37
905,2025-09-16T15:03:07.375,-0.43,0.49,-0.37
906,2025-09-16T15:03:07.385,-0.43,0.49,-0.31
907,2025-09-16T15:03:07.395,-0.43,0.61,-0.31
908,2025-09-16T15:03:07.404,-0.43,0.67,-0.24
909,2025-09-16T15:03:07.414,-0.43,0.67,-0.24
910,2025-09-16T15:03:07.424,-0.37,0.73,-0.18
911,2025-09-16T15:03:07.434,-0.31,0.79,-0.12
912,2025-09-16T15:03:07.444,-0.37,0.79,-0.12
913,2025-09-16T15:03:07.453,-0.24,0.73,-0.18
914,2025-09-16T15:03:07.463,-0.24,0.73,-0.18
915,2025-09-16T15:03:07.473,-0.31,0.73,-0.18
916,2025-09-16T15:03:07.483,-0.24,0.73,-0.24
917,2025-09-16T15:03:07.493,-0.24,0.67,-0.31
918,2025-09-16T15:03:07.502,-0.31,0.73,-0.37
919,2025-09-16T15:03:07.512,-0.31,0.73,-0.37
920,2025-09-16T15:03:07.522,-0.31,0.73,-0.37
921,2025-09-16T15:03:07.532,-0.37,0.73,-0.37
922,2025-09-16T15:03:07.542,-0.43,0.79,-0.31
923,2025-09-16T15:03:07.551,-0.43,0.73,-0.24
924,2025-09-16T15:03:07.561,-0.49,0.67,-0.18
925,2025-09-16T15:03:07.571,-0.49,0.73,-0.18
926,2025-09-16T15:03:07.581,-0.49,0.73,-0.12
927,2025-09-16T15:03:07.590,-0.49,0.73,-0.18
928,2025-09-16T15:03:07.600,-0.43,0.79,-0.18
929,2025-09-16T15:03:07.610,-0.37,0.85,-0.31
930,2025-09-16T15:03:07.620,-0.31,0.92,-0.37
931,2025-09-16T15:03:07.629,-0.18,0.98,-0.37
932,2025-09-16T15:03:07.640,-0.18,0.98,-0.43
933,2025-09-16T15:03:07.649,-0.18,1.04,-0.49
934,2025-09-16T15:03:07.659,-0.06,1.04,-0.49
935,2025-09-16T15:03:07.669,-0.12,0.98,-0.49
936,2025-09-16T15:03:07.678,-0.24,0.98,-0.49
937,2025-09-16T15:03:07.688,-0.31,0.92,-0.43
938,2025-09-16T15:03:07.699,-0.24,0.85,-0.37
939,2025-09-16T15:03:07.708,-0.37,0.79,-0.31
940,2025-09-16T15:03:07.718,-0.37,0.79,-0.24
941,2025-09-16T15:03:07.728,-0.24,0.79,-0.18
942,2025-09-16T15:03:07.738,-0.24,0.73,-0.12
943,2025-09-16T15:03:07.747,-0.12,0.73,-0.18
944,2025-09-16T15:03:07.757,0.0,0.73,-0.31
945,2025-09-16T15:03:07.767,0.12,0.85,-0.31
946,2025-09-16T15:03:07.777,0.18,0.85,-0.43
947,2025-09-16T15:03:07.786,0.24,0.85,-0.49
948,2025-09-16T15:03:07.796,0.18,0.92,-0.55
949,2025-09-16T15:03:07.806,0.12,0.85,-0.67
950,2025-09-16T15:03:07.816,0.0,0.85,-0.67
951,2025-09-16T15:03:07.826,-0.18,0.85,-0.67
952,2025-09-16T15:03:07.836,-0.37,0.79,-0.67
953,2025-09-16T15:03:07.845,-0.55,0.79,-0.55
954,2025-09-16T15:03:07.855,-0.55,0.73,-0.49
955,2025-09-16T15:03:07.864,-0.67,0.79,-0.31
956,2025-09-16T15:03:07.874,-0.61,0.85,-0.24
957,2025-09-16T15:03:07.884,-0.49,0.85,-0.12
958,2025-09-16T15:03:07.894,-0.31,0.92,-0.06
959,2025-09-16T15:03:07.904,-0.18,1.04,-0.06
960,2025-09-16T15:03:07.914,0.12,1.04,-0.12
961,2025-09-16T15:03:07.923,0.37,1.04,-0.18
962,2025-09-16T15:03:07.933,0.55,0.98,-0.24
963,2025-09-16T15:03:07.943,0.67,0.92,-0.31
964,2025-09-16T15:03:07.953,0.73,0.79,-0.37
965,2025-09-16T15:03:07.963,0.73,0.67,-0.43
966,2025-09-16T15:03:07.973,0.67,0.49,-0.43
967,2025-09-16T15:03:07.982,0.55,0.37,-0.49
968,2025-09-16T15:03:07.992,0.31,0.31,-0.49
969,2025-09-16T15:03:08.002,0.12,0.24,-0.49
970,2025-09-16T15:03:08.012,-0.12,0.31,-0.49
971,2025-09-16T15:03:08.022,-0.37,0.31,-0.43
972,2025-09-16T15:03:08.031,-0.55,0.43,-0.43
973,2025-09-16T15:03:08.041,-0.67,0.55,-0.43
974,2025-09-16T15:03:08.051,-0.79,0.73,-0.43
975,2025-09-16T15:03:08.061,-0.73,0.98,-0.43
976,2025-09-16T15:03:08.071,-0.67,1.04,-0.37
977,2025-09-16T15:03:08.080,-0.55,1.1,-0.37
978,2025-09-16T15:03:08.090,-0.37,1.16,-0.37
979,2025-09-16T15:03:08.100,-0.18,1.16,-0.31
980,2025-09-16T15:03:08.110,0.0,1.04,-0.24
981,2025-09-16T15:03:08.120,0.18,0.92,-0.18
982,2025-09-16T15:03:08.129,0.37,0.73,-0.12
983,2025-09-16T15:03:08.139,0.49,0.49,-0.12
984,2025-09-16T15:03:08.149,0.55,0.31,-0.06
985,2025-09-16T15:03:08.159,0.55,0.18,-0.12
986,2025-09-16T15:03:08.168,0.49,0.06,-0.18
987,2025-09-16T15:03:08.178,0.43,0.06,-0.12
988,2025-09-16T15:03:08.187,0.18,0.06,-0.18
989,2025-09-16T15:03:08.198,0.0,0.06,-0.24
990,2025-09-16T15:03:08.207,-0.24,0.24,-0.31
991,2025-09-16T15:03:08.217,-0.43,0.37,-0.37
992,2025-09-16T15:03:08.226,-0.61,0.49,-0.37
993,2025-09-16T15:03:08.237,-0.61,0.67,-0.37
994,2025-09-16T15:03:08.247,-0.73,0.79,-0.31
995,2025-09-16T15:03:08.256,-0.73,0.92,-0.24
996,2025-09-16T15:03:08.266,-0.67,0.98,-0.18
997,2025-09-16T15:03:08.276,-0.49,1.04,-0.12
998,2025-09-16T15:03:08.286,-0.37,1.04,-0.06
999,2025-09-16T15:03:08.296,-0.31,0.98,-0.06
