sample,timestamp,gyro_x,gyro_y,gyro_z
28000,2025-09-16T15:07:32.637,-0.31,0.79,-0.37
28001,2025-09-16T15:07:32.646,-0.37,0.85,-0.43
28002,2025-09-16T15:07:32.656,-0.37,0.85,-0.43
28003,2025-09-16T15:07:32.666,-0.37,0.79,-0.43
28004,2025-09-16T15:07:32.675,-0.31,0.79,-0.37
28005,2025-09-16T15:07:32.685,-0.37,0.79,-0.43
28006,2025-09-16T15:07:32.695,-0.37,0.79,-0.37
28007,2025-09-16T15:07:32.705,-0.37,0.79,-0.37
28008,2025-09-16T15:07:32.715,-0.37,0.79,-0.37
28009,2025-09-16T15:07:32.724,-0.37,0.79,-0.37
28010,2025-09-16T15:07:32.734,-0.24,0.79,-0.37
28011,2025-09-16T15:07:32.744,-0.31,0.85,-0.37
28012,2025-09-16T15:07:32.754,-0.31,0.85,-0.37
28013,2025-09-16T15:07:32.763,-0.31,0.85,-0.37
28014,2025-09-16T15:07:32.773,-0.43,0.79,-0.37
28015,2025-09-16T15:07:32.783,-0.43,0.85,-0.37
28016,2025-09-16T15:07:32.793,-0.37,0.79,-0.43
28017,2025-09-16T15:07:32.803,-0.43,0.79,-0.37
28018,2025-09-16T15:07:32.812,-0.24,0.79,-0.37
28019,2025-09-16T15:07:32.822,-0.24,0.79,-0.37
28020,2025-09-16T15:07:32.832,-0.31,0.79,-0.37
28021,2025-09-16T15:07:32.842,-0.31,0.79,-0.37
28022,2025-09-16T15:07:32.852,-0.24,0.79,-0.37
28023,2025-09-16T15:07:32.862,-0.43,0.85,-0.37
28024,2025-09-16T15:07:32.872,-0.49,0.79,-0.43
28025,2025-09-16T15:07:32.881,-0.43,0.79,-0.37
28026,2025-09-16T15:07:32.890,-0.43,0.73,-0.43
28027,2025-09-16T15:07:32.900,-0.43,0.85,-0.37
28028,2025-09-16T15:07:32.910,-0.31,0.79,-0.37
28029,2025-09-16T15:07:32.920,-0.31,0.79,-0.37
28030,2025-09-16T15:07:32.930,-0.24,0.85,-0.43
28031,2025-09-16T15:07:32.939,-0.31,0.79,-0.37
28032,2025-09-16T15:07:32.949,-0.31,0.85,-0.43
28033,2025-09-16T15:07:32.959,-0.43,0.79,-0.37
28034,2025-09-16T15:07:32.969,-0.37,0.85,-0.37
28035,2025-09-16T15:07:32.980,-0.37,0.85,-0.43
28036,2025-09-16T15:07:32.990,-0.37,0.85,-0.43
28037,2025-09-16T15:07:32.999,-0.37,0.79,-0.37
28038,2025-09-16T15:07:33.009,-0.24,0.79,-0.37
28039,2025-09-16T15:07:33.019,-0.24,0.79,-0.43
28040,2025-09-16T15:07:33.029,-0.31,0.79,-0.37
28041,2025-09-16T15:07:33.038,-0.31,0.79,-0.37
28042,2025-09-16T15:07:33.048,-0.37,0.79,-0.37
28043,2025-09-16T15:07:33.058,-0.43,0.79,-0.37
28044,2025-09-16T15:07:33.067,-0.43,0.79,-0.37
28045,2025-09-16T15:07:33.077,-0.43,0.85,-0.37
28046,2025-09-16T15:07:33.087,-0.43,0.79,-0.37
28047,2025-09-16T15:07:33.097,-0.31,0.85,-0.43
28048,2025-09-16T15:07:33.107,-0.31,0.85,-0.37
28049,2025-09-16T15:07:33.116,-0.24,0.85,-0.37
28050,2025-09-16T15:07:33.126,-0.24,0.79,-0.43
28051,2025-09-16T15:07:33.136,-0.24,0.79,-0.37
28052,2025-09-16T15:07:33.146,-0.43,0.79,-0.37
28053,2025-09-16T15:07:33.156,-0.43,0.85,-0.43
28054,2025-09-16T15:07:33.165,-0.43,0.79,-0.37
28055,2025-09-16T15:07:33.175,-0.43,0.79,-0.43
28056,2025-09-16T15:07:33.185,-0.49,0.79,-0.43
28057,2025-09-16T15:07:33.195,-0.24,0.79,-0.43
28058,2025-09-16T15:07:33.205,-0.31,0.85,-0.37
28059,2025-09-16T15:07:33.215,-0.31,0.79,-0.37
28060,2025-09-16T15:07:33.224,-0.37,0.79,-0.37
28061,2025-09-16T15:07:33.234,-0.31,0.79,-0.37
28062,2025-09-16T15:07:33.244,-0.37,0.85,-0.37
28063,2025-09-16T15:07:33.254,-0.31,0.79,-0.37
28064,2025-09-16T15:07:33.264,-0.37,0.85,-0.37
28065,2025-09-16T15:07:33.273,-0.31,0.79,-0.37
28066,2025-09-16T15:07:33.283,-0.37,0.79,-0.37
28067,2025-09-16T15:07:33.293,-0.31,0.85,-0.37
28068,2025-09-16T15:07:33.303,-0.37,0.85,-0.37
28069,2025-09-16T15:07:33.312,-0.37,0.79,-0.37
28070,2025-09-16T15:07:33.322,-0.43,0.79,-0.37
28071,2025-09-16T15:07:33.332,-0.49,0.85,-0.37
28072,2025-09-16T15:07:33.342,-0.43,0.79,-0.43
28073,2025-09-16T15:07:33.351,-0.43,0.85,-0.43
28074,2025-09-16T15:07:33.361,-0.31,0.79,-0.43
28075,2025-09-16T15:07:33.371,-0.37,0.79,-0.43
28076,2025-09-16T15:07:33.381,-0.24,0.79,-0.43
28077,2025-09-16T15:07:33.391,-0.24,0.79,-0.37
28078,2025-09-16T15:07:33.400,-0.31,0.79,-0.43
28079,2025-09-16T15:07:33.410,-0.37,0.79,-0.37
28080,2025-09-16T15:07:33.420,-0.31,0.79,-0.37
28081,2025-09-16T15:07:33.430,-0.37,0.79,-0.37
28082,2025-09-16T15:07:33.440,-0.43,0.79,-0.37
28083,2025-09-16T15:07:33.449,-0.43,0.85,-0.37
28084,2025-09-16T15:07:33.459,-0.31,0.85,-0.37
28085,2025-09-16T15:07:33.469,-0.31,0.79,-0.37
28086,2025-09-16T15:07:33.479,-0.31,0.79,-0.37
28087,2025-09-16T15:07:33.489,-0.37,0.79,-0.37
28088,2025-09-16T15:07:33.499,-0.37,0.79,-0.37
28089,2025-09-16T15:07:33.508,-0.37,0.79,-0.43
28090,2025-09-16T15:07:33.518,-0.37,0.85,-0.43
28091,2025-09-16T15:07:33.527,-0.31,0.79,-0.37
28092,2025-09-16T15:07:33.538,-0.31,0.85,-0.37
28093,2025-09-16T15:07:33.547,-0.31,0.79,-0.37
28094,2025-09-16T15:07:33.557,-0.31,0.79,-0.43
28095,2025-09-16T15:07:33.567,-0.37,0.79,-0.43
28096,2025-09-16T15:07:33.576,-0.37,0.79,-0.37
28097,2025-09-16T15:07:33.586,-0.31,0.79,-0.43
28098,2025-09-16T15:07:33.596,-0.37,0.79,-0.43
28099,2025-09-16T15:07:33.605,-0.37,0.79,-0.43
28100,2025-09-16T15:07:33.615,-0.37,0.79,-0.43
28101,2025-09-16T15:07:33.625,-0.37,0.85,-0.37
28102,2025-09-16T15:07:33.635,-0.43,0.79,-0.43
28103,2025-09-16T15:07:33.644,-0.37,0.85,-0.43
28104,2025-09-16T15:07:33.654,-0.37,0.79,-0.43
28105,2025-09-16T15:07:33.664,-0.37,0.85,-0.43
28106,2025-09-16T15:07:33.675,-0.37,0.85,-0.43
28107,2025-09-16T15:07:33.684,-0.31,0.79,-0.37
28108,2025-09-16T15:07:33.694,-0.31,0.79,-0.37
28109,2025-09-16T15:07:33.704,-0.37,0.79,-0.37
28110,2025-09-16T15:07:33.713,-0.31,0.79,-0.37
28111,2025-09-16T15:07:33.723,-0.37,0.79,-0.37
28112,2025-09-16T15:07:33.733,-0.43,0.79,-0.37
28113,2025-09-16T15:07:33.743,-0.37,0.79,-0.37
28114,2025-09-16T15:07:33.753,-0.37,0.79,-0.43
28115,2025-09-16T15:07:33.762,-0.37,0.79,-0.37
28116,2025-09-16T15:07:33.773,-0.37,0.79,-0.43
28117,2025-09-16T15:07:33.782,-0.37,0.79,-0.37
28118,2025-09-16T15:07:33.792,-0.37,0.79,-0.43
28119,2025-09-16T15:07:33.801,-0.37,0.79,-0.43
28120,2025-09-16T15:07:33.811,-0.24,0.73,-0.43
28121,2025-09-16T15:07:33.821,-0.31,0.79,-0.43
28122,2025-09-16T15:07:33.831,-0.31,0.79,-0.43
28123,2025-09-16T15:07:33.840,-0.31,0.79,-0.43
28124,2025-09-16T15:07:33.850,-0.37,0.79,-0.43
28125,2025-09-16T15:07:33.860,-0.37,0.79,-0.37
28126,2025-09-16T15:07:33.870,-0.31,0.79,-0.37
28127,2025-09-16T15:07:33.880,-0.43,0.79,-0.37
28128,2025-09-16T15:07:33.890,-0.37,0.85,-0.37
28129,2025-09-16T15:07:33.900,-0.31,0.79,-0.37
28130,2025-09-16T15:07:33.909,-0.24,0.79,-0.37
28131,2025-09-16T15:07:33.919,-0.24,0.79,-0.37
28132,2025-09-16T15:07:33.929,-0.31,0.79,-0.43
28133,2025-09-16T15:07:33.939,-0.37,0.79,-0.43
28134,2025-09-16T15:07:33.948,-0.43,0.85,-0.43
28135,2025-09-16T15:07:33.959,-0.43,0.79,-0.43
28136,2025-09-16T15:07:33.968,-0.37,0.79,-0.43
28137,2025-09-16T15:07:33.978,-0.31,0.79,-0.43
28138,2025-09-16T15:07:33.987,-0.24,0.79,-0.37
28139,2025-09-16T15:07:33.997,-0.24,0.79,-0.37
28140,2025-09-16T15:07:34.007,-0.31,0.79,-0.37
28141,2025-09-16T15:07:34.016,-0.31,0.79,-0.37
28142,2025-09-16T15:07:34.027,-0.37,0.85,-0.37
28143,2025-09-16T15:07:34.037,-0.43,0.79,-0.37
28144,2025-09-16T15:07:34.047,-0.37,0.79,-0.37
28145,2025-09-16T15:07:34.056,-0.31,0.79,-0.37
28146,2025-09-16T15:07:34.066,-0.31,0.79,-0.37
28147,2025-09-16T15:07:34.075,-0.31,0.79,-0.37
28148,2025-09-16T15:07:34.085,-0.31,0.79,-0.37
28149,2025-09-16T15:07:34.095,-0.37,0.79,-0.37
28150,2025-09-16T15:07:34.105,-0.37,0.79,-0.37
28151,2025-09-16T15:07:34.115,-0.37,0.79,-0.37
28152,2025-09-16T15:07:34.124,-0.37,0.79,-0.37
28153,2025-09-16T15:07:34.134,-0.37,0.79,-0.43
28154,2025-09-16T15:07:34.144,-0.37,0.79,-0.43
28155,2025-09-16T15:07:34.154,-0.31,0.79,-0.43
28156,2025-09-16T15:07:34.164,-0.37,0.85,-0.43
28157,2025-09-16T15:07:34.173,-0.37,0.79,-0.43
28158,2025-09-16T15:07:34.184,-0.37,0.85,-0.37
28159,2025-09-16T15:07:34.193,-0.37,0.85,-0.37
28160,2025-09-16T15:07:34.203,-0.31,0.79,-0.37
28161,2025-09-16T15:07:34.213,-0.37,0.79,-0.43
28162,2025-09-16T15:07:34.223,-0.37,0.85,-0.37
28163,2025-09-16T15:07:34.232,-0.31,0.85,-0.37
28164,2025-09-16T15:07:34.242,-0.37,0.79,-0.37
28165,2025-09-16T15:07:34.252,-0.31,0.79,-0.37
28166,2025-09-16T15:07:34.262,-0.37,0.79,-0.37
28167,2025-09-16T15:07:34.272,-0.37,0.79,-0.43
28168,2025-09-16T15:07:34.282,-0.37,0.79,-0.43
28169,2025-09-16T15:07:34.291,-0.37,0.79,-0.37
28170,2025-09-16T15:07:34.301,-0.37,0.79,-0.37
28171,2025-09-16T15:07:34.311,-0.31,0.79,-0.37
28172,2025-09-16T15:07:34.321,-0.37,0.85,-0.37
28173,2025-09-16T15:07:34.331,-0.37,0.79,-0.37
28174,2025-09-16T15:07:34.340,-0.31,0.79,-0.37
28175,2025-09-16T15:07:34.350,-0.31,0.79,-0.37
28176,2025-09-16T15:07:34.360,-0.37,0.79,-0.43
28177,2025-09-16T15:07:34.370,-0.37,0.85,-0.43
28178,2025-09-16T15:07:34.379,-0.37,0.79,-0.43
28179,2025-09-16T15:07:34.389,-0.37,0.85,-0.43
28180,2025-09-16T15:07:34.399,-0.31,0.79,-0.43
28181,2025-09-16T15:07:34.409,-0.31,0.79,-0.43
28182,2025-09-16T15:07:34.418,-0.37,0.79,-0.43
28183,2025-09-16T15:07:34.428,-0.43,0.79,-0.43
28184,2025-09-16T15:07:34.438,-0.37,0.85,-0.43
28185,2025-09-16T15:07:34.448,-0.31,0.79,-0.37
28186,2025-09-16T15:07:34.458,-0.31,0.79,-0.37
28187,2025-09-16T15:07:34.467,-0.37,0.79,-0.37
28188,2025-09-16T15:07:34.477,-0.24,0.79,-0.37
28189,2025-09-16T15:07:34.487,-0.31,0.79,-0.37
28190,2025-09-16T15:07:34.496,-0.31,0.79,-0.37
28191,2025-09-16T15:07:34.506,-0.37,0.79,-0.37
28192,2025-09-16T15:07:34.516,-0.43,0.85,-0.43
28193,2025-09-16T15:07:34.526,-0.43,0.79,-0.37
28194,2025-09-16T15:07:34.535,-0.31,0.85,-0.37
28195,2025-09-16T15:07:34.545,-0.43,0.79,-0.37
28196,2025-09-16T15:07:34.555,-0.37,0.79,-0.37
28197,2025-09-16T15:07:34.565,-0.31,0.79,-0.37
28198,2025-09-16T15:07:34.575,-0.31,0.79,-0.43
28199,2025-09-16T15:07:34.585,-0.37,0.79,-0.37
28200,2025-09-16T15:07:34.595,-0.31,0.79,-0.37
28201,2025-09-16T15:07:34.605,-0.24,0.79,-0.43
28202,2025-09-16T15:07:34.614,-0.37,0.79,-0.37
28203,2025-09-16T15:07:34.624,-0.37,0.85,-0.37
28204,2025-09-16T15:07:34.634,-0.37,0.85,-0.37
28205,2025-09-16T15:07:34.644,-0.37,0.79,-0.37
28206,2025-09-16T15:07:34.653,-0.37,0.85,-0.43
28207,2025-09-16T15:07:34.663,-0.31,0.79,-0.37
28208,2025-09-16T15:07:34.673,-0.37,0.79,-0.37
28209,2025-09-16T15:07:34.682,-0.31,0.79,-0.37
28210,2025-09-16T15:07:34.692,-0.37,0.79,-0.31
28211,2025-09-16T15:07:34.702,-0.31,0.79,-0.37
28212,2025-09-16T15:07:34.712,-0.37,0.79,-0.37
28213,2025-09-16T15:07:34.722,-0.37,0.79,-0.43
28214,2025-09-16T15:07:34.731,-0.43,0.79,-0.37
28215,2025-09-16T15:07:34.741,-0.37,0.85,-0.37
28216,2025-09-16T15:07:34.751,-0.31,0.79,-0.37
28217,2025-09-16T15:07:34.761,-0.37,0.79,-0.37
28218,2025-09-16T15:07:34.770,-0.37,0.85,-0.37
28219,2025-09-16T15:07:34.781,-0.24,0.85,-0.43
28220,2025-09-16T15:07:34.791,-0.31,0.85,-0.43
28221,2025-09-16T15:07:34.800,-0.37,0.79,-0.43
28222,2025-09-16T15:07:34.810,-0.43,0.85,-0.37
28223,2025-09-16T15:07:34.820,-0.37,0.85,-0.43
28224,2025-09-16T15:07:34.831,-0.43,0.79,-0.43
28225,2025-09-16T15:07:34.839,-0.37,0.79,-0.37
28226,2025-09-16T15:07:34.849,-0.37,0.79,-0.31
28227,2025-09-16T15:07:34.859,-0.31,0.79,-0.37
28228,2025-09-16T15:07:34.869,-0.24,0.79,-0.37
28229,2025-09-16T15:07:34.878,-0.31,0.79,-0.43
28230,2025-09-16T15:07:34.888,-0.31,0.79,-0.43
28231,2025-09-16T15:07:34.898,-0.37,0.79,-0.37
28232,2025-09-16T15:07:34.908,-0.43,0.79,-0.37
28233,2025-09-16T15:07:34.918,-0.43,0.79,-0.43
28234,2025-09-16T15:07:34.928,-0.43,0.85,-0.43
28235,2025-09-16T15:07:34.937,-0.37,0.85,-0.37
28236,2025-09-16T15:07:34.947,-0.37,0.79,-0.37
28237,2025-09-16T15:07:34.957,-0.24,0.85,-0.37
28238,2025-09-16T15:07:34.967,-0.31,0.79,-0.37
28239,2025-09-16T15:07:34.976,-0.37,0.79,-0.37
28240,2025-09-16T15:07:34.986,-0.37,0.79,-0.43
28241,2025-09-16T15:07:34.996,-0.37,0.85,-0.37
28242,2025-09-16T15:07:35.006,-0.37,0.79,-0.37
28243,2025-09-16T15:07:35.015,-0.37,0.79,-0.37
28244,2025-09-16T15:07:35.025,-0.31,0.79,-0.37
28245,2025-09-16T15:07:35.035,-0.31,0.85,-0.37
28246,2025-09-16T15:07:35.045,-0.31,0.79,-0.37
28247,2025-09-16T15:07:35.055,-0.31,0.79,-0.43
28248,2025-09-16T15:07:35.064,-0.37,0.79,-0.43
28249,2025-09-16T15:07:35.074,-0.37,0.85,-0.37
28250,2025-09-16T15:07:35.084,-0.37,0.79,-0.37
28251,2025-09-16T15:07:35.094,-0.31,0.79,-0.37
28252,2025-09-16T15:07:35.103,-0.37,0.85,-0.43
28253,2025-09-16T15:07:35.113,-0.37,0.79,-0.43
28254,2025-09-16T15:07:35.123,-0.37,0.79,-0.43
28255,2025-09-16T15:07:35.133,-0.43,0.79,-0.43
28256,2025-09-16T15:07:35.142,-0.37,0.79,-0.37
28257,2025-09-16T15:07:35.152,-0.31,0.79,-0.43
28258,2025-09-16T15:07:35.162,-0.37,0.79,-0.43
28259,2025-09-16T15:07:35.172,-0.31,0.79,-0.43
28260,2025-09-16T15:07:35.182,-0.37,0.85,-0.37
28261,2025-09-16T15:07:35.192,-0.31,0.79,-0.43
28262,2025-09-16T15:07:35.201,-0.37,0.79,-0.37
28263,2025-09-16T15:07:35.211,-0.37,0.79,-0.37
28264,2025-09-16T15:07:35.221,-0.37,0.79,-0.37
28265,2025-09-16T15:07:35.231,-0.37,0.79,-0.37
28266,2025-09-16T15:07:35.241,-0.37,0.79,-0.37
28267,2025-09-16T15:07:35.251,-0.37,0.79,-0.37
28268,2025-09-16T15:07:35.260,-0.37,0.85,-0.37
28269,2025-09-16T15:07:35.270,-0.37,0.79,-0.37
28270,2025-09-16T15:07:35.279,-0.31,0.79,-0.37
28271,2025-09-16T15:07:35.289,-0.37,0.85,-0.37
28272,2025-09-16T15:07:35.299,-0.37,0.79,-0.37
28273,2025-09-16T15:07:35.309,-0.37,0.79,-0.37
28274,2025-09-16T15:07:35.319,-0.37,0.79,-0.37
28275,2025-09-16T15:07:35.329,-0.37,0.79,-0.43
28276,2025-09-16T15:07:35.339,-0.31,0.79,-0.43
28277,2025-09-16T15:07:35.349,-0.31,0.85,-0.37
28278,2025-09-16T15:07:35.359,-0.37,0.85,-0.43
28279,2025-09-16T15:07:35.369,-0.37,0.79,-0.43
28280,2025-09-16T15:07:35.378,-0.31,0.79,-0.37
28281,2025-09-16T15:07:35.387,-0.31,0.79,-0.43
28282,2025-09-16T15:07:35.397,-0.37,0.79,-0.43
28283,2025-09-16T15:07:35.407,-0.37,0.79,-0.37
28284,2025-09-16T15:07:35.417,-0.31,0.79,-0.37
28285,2025-09-16T15:07:35.427,-0.37,0.79,-0.43
28286,2025-09-16T15:07:35.436,-0.31,0.79,-0.43
28287,2025-09-16T15:07:35.446,-0.31,0.85,-0.37
28288,2025-09-16T15:07:35.456,-0.37,0.79,-0.37
28289,2025-09-16T15:07:35.466,-0.37,0.79,-0.37
28290,2025-09-16T15:07:35.476,-0.31,0.79,-0.43
28291,2025-09-16T15:07:35.486,-0.37,0.79,-0.43
28292,2025-09-16T15:07:35.496,-0.31,0.85,-0.37
28293,2025-09-16T15:07:35.505,-0.31,0.85,-0.43
28294,2025-09-16T15:07:35.515,-0.31,0.79,-0.43
28295,2025-09-16T15:07:35.525,-0.37,0.85,-0.37
28296,2025-09-16T15:07:35.534,-0.37,0.79,-0.43
28297,2025-09-16T15:07:35.545,-0.37,0.79,-0.37
28298,2025-09-16T15:07:35.554,-0.31,0.85,-0.37
28299,2025-09-16T15:07:35.564,-0.31,0.79,-0.37
28300,2025-09-16T15:07:35.574,-0.31,0.85,-0.37
28301,2025-09-16T15:07:35.584,-0.37,0.79,-0.37
28302,2025-09-16T15:07:35.593,-0.37,0.79,-0.37
28303,2025-09-16T15:07:35.603,-0.37,0.85,-0.37
28304,2025-09-16T15:07:35.613,-0.37,0.85,-0.43
28305,2025-09-16T15:07:35.623,-0.31,0.79,-0.37
28306,2025-09-16T15:07:35.633,-0.31,0.79,-0.37
28307,2025-09-16T15:07:35.642,-0.31,0.79,-0.37
28308,2025-09-16T15:07:35.652,-0.24,0.79,-0.37
28309,2025-09-16T15:07:35.662,-0.31,0.79,-0.37
28310,2025-09-16T15:07:35.672,-0.37,0.79,-0.37
28311,2025-09-16T15:07:35.681,-0.43,0.79,-0.37
28312,2025-09-16T15:07:35.691,-0.43,0.73,-0.37
28313,2025-09-16T15:07:35.701,-0.49,0.79,-0.43
28314,2025-09-16T15:07:35.711,-0.43,0.85,-0.37
28315,2025-09-16T15:07:35.721,-0.31,0.79,-0.37
28316,2025-09-16T15:07:35.730,-0.24,0.79,-0.43
28317,2025-09-16T15:07:35.740,-0.31,0.79,-0.37
28318,2025-09-16T15:07:35.750,-0.31,0.79,-0.43
28319,2025-09-16T15:07:35.760,-0.37,0.79,-0.37
28320,2025-09-16T15:07:35.769,-0.31,0.79,-0.43
28321,2025-09-16T15:07:35.779,-0.43,0.79,-0.43
28322,2025-09-16T15:07:35.789,-0.43,0.79,-0.37
28323,2025-09-16T15:07:35.799,-0.37,0.79,-0.37
28324,2025-09-16T15:07:35.809,-0.37,0.79,-0.37
28325,2025-09-16T15:07:35.819,-0.31,0.85,-0.37
28326,2025-09-16T15:07:35.828,-0.24,0.79,-0.37
28327,2025-09-16T15:07:35.838,-0.24,0.85,-0.37
28328,2025-09-16T15:07:35.848,-0.24,0.79,-0.37
28329,2025-09-16T15:07:35.857,-0.31,0.79,-0.43
28330,2025-09-16T15:07:35.867,-0.37,0.79,-0.37
28331,2025-09-16T15:07:35.878,-0.49,0.85,-0.37
28332,2025-09-16T15:07:35.887,-0.49,0.85,-0.37
28333,2025-09-16T15:07:35.897,-0.43,0.85,-0.43
28334,2025-09-16T15:07:35.907,-0.43,0.85,-0.43
28335,2025-09-16T15:07:35.917,-0.37,0.79,-0.43
28336,2025-09-16T15:07:35.927,-0.31,0.79,-0.43
28337,2025-09-16T15:07:35.936,-0.24,0.79,-0.43
28338,2025-09-16T15:07:35.946,-0.31,0.79,-0.37
28339,2025-09-16T15:07:35.957,-0.24,0.79,-0.37
28340,2025-09-16T15:07:35.965,-0.31,0.85,-0.37
28341,2025-09-16T15:07:35.975,-0.37,0.85,-0.37
28342,2025-09-16T15:07:35.985,-0.37,0.79,-0.37
28343,2025-09-16T15:07:35.995,-0.43,0.85,-0.37
28344,2025-09-16T15:07:36.004,-0.37,0.79,-0.37
28345,2025-09-16T15:07:36.014,-0.37,0.79,-0.37
28346,2025-09-16T15:07:36.024,-0.37,0.79,-0.37
28347,2025-09-16T15:07:36.034,-0.31,0.79,-0.37
28348,2025-09-16T15:07:36.043,-0.31,0.79,-0.37
28349,2025-09-16T15:07:36.053,-0.37,0.79,-0.43
28350,2025-09-16T15:07:36.063,-0.43,0.79,-0.43
28351,2025-09-16T15:07:36.073,-0.43,0.79,-0.43
28352,2025-09-16T15:07:36.083,-0.37,0.79,-0.43
28353,2025-09-16T15:07:36.092,-0.31,0.85,-0.43
28354,2025-09-16T15:07:36.102,-0.43,0.79,-0.37
28355,2025-09-16T15:07:36.112,-0.37,0.85,-0.37
28356,2025-09-16T15:07:36.122,-0.31,0.85,-0.43
28357,2025-09-16T15:07:36.132,-0.31,0.79,-0.43
28358,2025-09-16T15:07:36.141,-0.31,0.79,-0.43
28359,2025-09-16T15:07:36.151,-0.31,0.79,-0.43
28360,2025-09-16T15:07:36.161,-0.31,0.79,-0.37
28361,2025-09-16T15:07:36.171,-0.37,0.79,-0.43
28362,2025-09-16T15:07:36.180,-0.37,0.79,-0.37
28363,2025-09-16T15:07:36.190,-0.37,0.79,-0.37
28364,2025-09-16T15:07:36.200,-0.43,0.85,-0.43
28365,2025-09-16T15:07:36.210,-0.37,0.85,-0.37
28366,2025-09-16T15:07:36.219,-0.43,0.85,-0.37
28367,2025-09-16T15:07:36.229,-0.43,0.79,-0.37
28368,2025-09-16T15:07:36.239,-0.31,0.79,-0.37
28369,2025-09-16T15:07:36.249,-0.24,0.79,-0.43
28370,2025-09-16T15:07:36.259,-0.24,0.79,-0.43
28371,2025-09-16T15:07:36.269,-0.37,0.85,-0.37
28372,2025-09-16T15:07:36.278,-0.37,0.79,-0.37
28373,2025-09-16T15:07:36.288,-0.43,0.79,-0.37
28374,2025-09-16T15:07:36.298,-0.43,0.79,-0.43
28375,2025-09-16T15:07:36.308,-0.37,0.85,-0.43
28376,2025-09-16T15:07:36.318,-0.37,0.85,-0.37
28377,2025-09-16T15:07:36.327,-0.31,0.79,-0.37
28378,2025-09-16T15:07:36.337,-0.31,0.79,-0.37
28379,2025-09-16T15:07:36.347,-0.31,0.85,-0.37
28380,2025-09-16T15:07:36.356,-0.31,0.85,-0.37
28381,2025-09-16T15:07:36.366,-0.37,0.85,-0.37
28382,2025-09-16T15:07:36.377,-0.37,0.79,-0.37
28383,2025-09-16T15:07:36.386,-0.43,0.85,-0.37
28384,2025-09-16T15:07:36.396,-0.37,0.79,-0.37
28385,2025-09-16T15:07:36.406,-0.37,0.79,-0.37
28386,2025-09-16T15:07:36.415,-0.37,0.79,-0.37
28387,2025-09-16T15:07:36.425,-0.31,0.79,-0.37
28388,2025-09-16T15:07:36.435,-0.31,0.79,-0.37
28389,2025-09-16T15:07:36.445,-0.37,0.79,-0.37
28390,2025-09-16T15:07:36.455,-0.37,0.85,-0.37
28391,2025-09-16T15:07:36.464,-0.31,0.79,-0.37
28392,2025-09-16T15:07:36.474,-0.37,0.79,-0.37
28393,2025-09-16T15:07:36.484,-0.43,0.85,-0.43
28394,2025-09-16T15:07:36.494,-0.37,0.85,-0.43
28395,2025-09-16T15:07:36.503,-0.37,0.79,-0.37
28396,2025-09-16T15:07:36.513,-0.37,0.85,-0.37
28397,2025-09-16T15:07:36.523,-0.31,0.79,-0.37
28398,2025-09-16T15:07:36.533,-0.31,0.85,-0.37
28399,2025-09-16T15:07:36.543,-0.24,0.79,-0.37
28400,2025-09-16T15:07:36.553,-0.24,0.79,-0.37
28401,2025-09-16T15:07:36.563,-0.37,0.85,-0.43
28402,2025-09-16T15:07:36.572,-0.37,0.85,-0.37
28403,2025-09-16T15:07:36.582,-0.37,0.85,-0.37
28404,2025-09-16T15:07:36.591,-0.31,0.79,-0.37
28405,2025-09-16T15:07:36.602,-0.43,0.85,-0.37
28406,2025-09-16T15:07:36.611,-0.37,0.79,-0.37
28407,2025-09-16T15:07:36.622,-0.37,0.79,-0.43
28408,2025-09-16T15:07:36.631,-0.37,0.79,-0.43
28409,2025-09-16T15:07:36.641,-0.37,0.79,-0.37
28410,2025-09-16T15:07:36.651,-0.37,0.79,-0.43
28411,2025-09-16T15:07:36.660,-0.43,0.79,-0.43
28412,2025-09-16T15:07:36.670,-0.37,0.85,-0.43
28413,2025-09-16T15:07:36.679,-0.31,0.85,-0.43
28414,2025-09-16T15:07:36.689,-0.37,0.85,-0.43
28415,2025-09-16T15:07:36.699,-0.31,0.85,-0.43
28416,2025-09-16T15:07:36.709,-0.24,0.79,-0.43
28417,2025-09-16T15:07:36.719,-0.24,0.79,-0.43
28418,2025-09-16T15:07:36.729,-0.31,0.79,-0.37
28419,2025-09-16T15:07:36.738,-0.37,0.79,-0.37
28420,2025-09-16T15:07:36.748,-0.31,0.79,-0.37
28421,2025-09-16T15:07:36.758,-0.37,0.79,-0.37
28422,2025-09-16T15:07:36.768,-0.37,0.79,-0.37
28423,2025-09-16T15:07:36.778,-0.37,0.79,-0.37
28424,2025-09-16T15:07:36.788,-0.37,0.85,-0.31
28425,2025-09-16T15:07:36.797,-0.31,0.85,-0.37
28426,2025-09-16T15:07:36.807,-0.31,0.79,-0.37
28427,2025-09-16T15:07:36.817,-0.31,0.79,-0.43
28428,2025-09-16T15:07:36.827,-0.37,0.79,-0.43
28429,2025-09-16T15:07:36.837,-0.37,0.79,-0.43
28430,2025-09-16T15:07:36.846,-0.37,0.79,-0.43
28431,2025-09-16T15:07:36.856,-0.37,0.85,-0.49
28432,2025-09-16T15:07:36.866,-0.37,0.79,-0.43
28433,2025-09-16T15:07:36.875,-0.31,0.79,-0.37
28434,2025-09-16T15:07:36.885,-0.31,0.79,-0.37
28435,2025-09-16T15:07:36.895,-0.31,0.85,-0.37
28436,2025-09-16T15:07:36.905,-0.31,0.79,-0.37
28437,2025-09-16T15:07:36.914,-0.31,0.79,-0.37
28438,2025-09-16T15:07:36.924,-0.31,0.85,-0.43
28439,2025-09-16T15:07:36.934,-0.31,0.79,-0.37
28440,2025-09-16T15:07:36.944,-0.37,0.79,-0.37
28441,2025-09-16T15:07:36.954,-0.37,0.79,-0.37
28442,2025-09-16T15:07:36.964,-0.37,0.79,-0.37
28443,2025-09-16T15:07:36.973,-0.37,0.79,-0.43
28444,2025-09-16T15:07:36.984,-0.37,0.79,-0.37
28445,2025-09-16T15:07:36.993,-0.31,0.79,-0.37
28446,2025-09-16T15:07:37.003,-0.37,0.85,-0.37
28447,2025-09-16T15:07:37.013,-0.31,0.79,-0.37
28448,2025-09-16T15:07:37.023,-0.24,0.85,-0.31
28449,2025-09-16T15:07:37.033,-0.24,0.79,-0.31
28450,2025-09-16T15:07:37.042,-0.31,0.85,-0.37
28451,2025-09-16T15:07:37.052,-0.37,0.85,-0.37
28452,2025-09-16T15:07:37.062,-0.37,0.85,-0.37
28453,2025-09-16T15:07:37.072,-0.37,0.85,-0.43
28454,2025-09-16T15:07:37.081,-0.43,0.85,-0.49
28455,2025-09-16T15:07:37.091,-0.37,0.85,-0.55
28456,2025-09-16T15:07:37.101,-0.37,0.79,-0.55
28457,2025-09-16T15:07:37.110,-0.43,0.79,-0.55
28458,2025-09-16T15:07:37.120,-0.43,0.79,-0.49
28459,2025-09-16T15:07:37.130,-0.43,0.73,-0.49
28460,2025-09-16T15:07:37.139,-0.37,0.73,-0.49
28461,2025-09-16T15:07:37.149,-0.43,0.79,-0.37
28462,2025-09-16T15:07:37.159,-0.31,0.73,-0.37
28463,2025-09-16T15:07:37.169,-0.31,0.73,-0.37
28464,2025-09-16T15:07:37.179,-0.18,0.79,-0.31
28465,2025-09-16T15:07:37.188,-0.18,0.79,-0.31
28466,2025-09-16T15:07:37.198,-0.24,0.79,-0.31
28467,2025-09-16T15:07:37.208,-0.31,0.79,-0.31
28468,2025-09-16T15:07:37.218,-0.37,0.79,-0.31
28469,2025-09-16T15:07:37.228,-0.43,0.79,-0.37
28470,2025-09-16T15:07:37.238,-0.43,0.73,-0.37
28471,2025-09-16T15:07:37.247,-0.49,0.79,-0.43
28472,2025-09-16T15:07:37.257,-0.49,0.79,-0.49
28473,2025-09-16T15:07:37.267,-0.43,0.79,-0.49
28474,2025-09-16T15:07:37.277,-0.49,0.79,-0.49
28475,2025-09-16T15:07:37.288,-0.49,0.79,-0.49
28476,2025-09-16T15:07:37.297,-0.37,0.79,-0.49
28477,2025-09-16T15:07:37.306,-0.37,0.85,-0.49
28478,2025-09-16T15:07:37.316,-0.31,0.79,-0.43
28479,2025-09-16T15:07:37.326,-0.24,0.79,-0.43
28480,2025-09-16T15:07:37.336,-0.24,0.79,-0.37
28481,2025-09-16T15:07:37.346,-0.24,0.79,-0.31
28482,2025-09-16T15:07:37.356,-0.31,0.79,-0.31
28483,2025-09-16T15:07:37.365,-0.31,0.79,-0.31
28484,2025-09-16T15:07:37.375,-0.37,0.79,-0.31
28485,2025-09-16T15:07:37.385,-0.31,0.73,-0.31
28486,2025-09-16T15:07:37.395,-0.37,0.79,-0.31
28487,2025-09-16T15:07:37.405,-0.37,0.79,-0.31
28488,2025-09-16T15:07:37.415,-0.43,0.73,-0.37
28489,2025-09-16T15:07:37.424,-0.43,0.79,-0.43
28490,2025-09-16T15:07:37.434,-0.43,0.79,-0.43
28491,2025-09-16T15:07:37.444,-0.37,0.79,-0.43
28492,2025-09-16T15:07:37.454,-0.43,0.79,-0.43
28493,2025-09-16T15:07:37.464,-0.43,0.79,-0.49
28494,2025-09-16T15:07:37.473,-0.31,0.79,-0.43
28495,2025-09-16T15:07:37.483,-0.31,0.79,-0.43
28496,2025-09-16T15:07:37.493,-0.31,0.79,-0.43
28497,2025-09-16T15:07:37.503,-0.24,0.79,-0.43
28498,2025-09-16T15:07:37.513,-0.24,0.79,-0.37
28499,2025-09-16T15:07:37.522,-0.31,0.79,-0.37
