sample,timestamp,gyro_x,gyro_y,gyro_z
17500,2025-09-16T15:05:49.838,-0.37,0.79,-0.37
17501,2025-09-16T15:05:49.848,-0.31,0.85,-0.37
17502,2025-09-16T15:05:49.858,-0.24,0.79,-0.31
17503,2025-09-16T15:05:49.868,-0.43,0.85,-0.37
17504,2025-09-16T15:05:49.877,-0.31,0.79,-0.31
17505,2025-09-16T15:05:49.887,-0.24,0.73,-0.43
17506,2025-09-16T15:05:49.897,-0.67,0.79,-0.37
17507,2025-09-16T15:05:49.907,0.06,0.73,-0.31
17508,2025-09-16T15:05:49.917,-0.79,0.85,-0.43
17509,2025-09-16T15:05:49.927,-0.06,0.73,-0.37
17510,2025-09-16T15:05:49.936,-0.12,0.73,-0.31
17511,2025-09-16T15:05:49.946,-0.49,0.73,-0.37
17512,2025-09-16T15:05:49.956,-0.12,0.73,-0.37
17513,2025-09-16T15:05:49.966,-0.37,0.79,-0.43
17514,2025-09-16T15:05:49.976,-0.55,0.79,-0.43
17515,2025-09-16T15:05:49.986,-0.31,0.73,-0.37
17516,2025-09-16T15:05:49.995,-0.49,0.79,-0.43
17517,2025-09-16T15:05:50.004,-0.37,0.79,-0.43
17518,2025-09-16T15:05:50.014,-0.24,0.73,-0.37
17519,2025-09-16T15:05:50.024,-0.31,0.73,-0.43
17520,2025-09-16T15:05:50.034,-0.31,0.73,-0.37
17521,2025-09-16T15:05:50.044,-0.37,0.73,-0.43
17522,2025-09-16T15:05:50.053,-0.43,0.79,-0.37
17523,2025-09-16T15:05:50.064,-0.43,0.79,-0.37
17524,2025-09-16T15:05:50.073,-0.43,0.85,-0.37
17525,2025-09-16T15:05:50.082,-0.43,0.85,-0.37
17526,2025-09-16T15:05:50.093,-0.31,0.85,-0.37
17527,2025-09-16T15:05:50.103,-0.24,0.85,-0.37
17528,2025-09-16T15:05:50.113,-0.31,0.85,-0.37
17529,2025-09-16T15:05:50.122,-0.31,0.85,-0.37
17530,2025-09-16T15:05:50.132,-0.43,0.79,-0.37
17531,2025-09-16T15:05:50.142,-0.31,0.79,-0.37
17532,2025-09-16T15:05:50.152,-0.31,0.79,-0.37
17533,2025-09-16T15:05:50.162,-0.37,0.79,-0.37
17534,2025-09-16T15:05:50.172,-0.24,0.79,-0.37
17535,2025-09-16T15:05:50.181,-0.37,0.79,-0.37
17536,2025-09-16T15:05:50.191,-0.37,0.79,-0.43
17537,2025-09-16T15:05:50.201,-0.31,0.79,-0.43
17538,2025-09-16T15:05:50.210,-0.49,0.85,-0.43
17539,2025-09-16T15:05:50.220,-0.49,0.79,-0.43
17540,2025-09-16T15:05:50.230,-0.37,0.79,-0.43
17541,2025-09-16T15:05:50.240,-0.31,0.73,-0.37
17542,2025-09-16T15:05:50.249,-0.31,0.73,-0.37
17543,2025-09-16T15:05:50.259,-0.37,0.73,-0.31
17544,2025-09-16T15:05:50.270,-0.12,0.73,-0.24
17545,2025-09-16T15:05:50.279,-0.31,0.73,-0.24
17546,2025-09-16T15:05:50.288,-0.18,0.79,-0.18
17547,2025-09-16T15:05:50.298,-0.12,0.79,-0.12
17548,2025-09-16T15:05:50.309,-0.12,0.85,-0.12
17549,2025-09-16T15:05:50.318,-0.24,0.85,-0.12
17550,2025-09-16T15:05:50.328,-0.18,0.85,-0.12
17551,2025-09-16T15:05:50.338,-0.37,0.92,-0.18
17552,2025-09-16T15:05:50.348,-0.31,0.85,-0.18
17553,2025-09-16T15:05:50.357,-0.37,0.85,-0.24
17554,2025-09-16T15:05:50.367,-0.43,0.92,-0.37
17555,2025-09-16T15:05:50.377,-0.55,0.92,-0.43
17556,2025-09-16T15:05:50.387,-0.31,0.85,-0.43
17557,2025-09-16T15:05:50.397,-0.31,0.79,-0.43
17558,2025-09-16T15:05:50.406,-0.37,0.73,-0.43
17559,2025-09-16T15:05:50.415,-0.31,0.67,-0.37
17560,2025-09-16T15:05:50.425,-0.24,0.67,-0.43
17561,2025-09-16T15:05:50.436,-0.31,0.67,-0.31
17562,2025-09-16T15:05:50.445,-0.06,0.67,-0.24
17563,2025-09-16T15:05:50.455,-0.06,0.73,-0.18
17564,2025-09-16T15:05:50.465,-0.18,0.73,-0.24
17565,2025-09-16T15:05:50.475,-0.43,0.79,-0.24
17566,2025-09-16T15:05:50.484,-0.67,0.85,-0.37
17567,2025-09-16T15:05:50.494,-0.98,1.1,-0.43
17568,2025-09-16T15:05:50.504,0.67,0.92,-0.18
17569,2025-09-16T15:05:50.514,-0.55,1.04,-0.43
17570,2025-09-16T15:05:50.524,-0.18,0.92,-0.49
17571,2025-09-16T15:05:50.534,-0.31,0.85,-0.67
17572,2025-09-16T15:05:50.543,-1.1,0.79,-0.67
17573,2025-09-16T15:05:50.553,-0.79,0.73,-0.79
17574,2025-09-16T15:05:50.563,-0.73,0.73,-0.73
17575,2025-09-16T15:05:50.573,-0.85,0.79,-0.73
17576,2025-09-16T15:05:50.582,-0.06,0.73,-0.55
17577,2025-09-16T15:05:50.592,0.06,0.73,-0.55
17578,2025-09-16T15:05:50.602,-0.12,0.79,-0.49
17579,2025-09-16T15:05:50.611,0.0,0.79,-0.37
17580,2025-09-16T15:05:50.621,-0.12,0.79,-0.31
17581,2025-09-16T15:05:50.631,-0.61,0.85,-0.31
17582,2025-09-16T15:05:50.641,-0.67,0.79,-0.31
17583,2025-09-16T15:05:50.651,-0.55,0.79,-0.24
17584,2025-09-16T15:05:50.660,-0.43,0.79,-0.24
17585,2025-09-16T15:05:50.670,-0.18,0.67,-0.24
17586,2025-09-16T15:05:50.680,0.0,0.67,-0.31
17587,2025-09-16T15:05:50.690,-0.12,0.67,-0.37
17588,2025-09-16T15:05:50.700,-0.18,0.67,-0.43
17589,2025-09-16T15:05:50.710,-0.43,0.73,-0.49
17590,2025-09-16T15:05:50.720,-0.73,0.79,-0.61
17591,2025-09-16T15:05:50.729,-0.85,0.85,-0.55
17592,2025-09-16T15:05:50.739,-0.55,0.79,-0.55
17593,2025-09-16T15:05:50.749,-0.49,0.85,-0.43
17594,2025-09-16T15:05:50.759,-0.43,0.85,-0.43
17595,2025-09-16T15:05:50.768,-0.06,0.79,-0.31
17596,2025-09-16T15:05:50.778,-0.06,0.79,-0.31
17597,2025-09-16T15:05:50.787,0.0,0.73,-0.31
17598,2025-09-16T15:05:50.797,0.0,0.73,-0.31
17599,2025-09-16T15:05:50.808,-0.24,0.73,-0.31
17600,2025-09-16T15:05:50.818,-0.43,0.79,-0.37
17601,2025-09-16T15:05:50.827,-0.49,0.79,-0.37
17602,2025-09-16T15:05:50.837,-0.55,0.79,-0.49
17603,2025-09-16T15:05:50.847,-0.61,0.73,-0.55
17604,2025-09-16T15:05:50.857,-0.61,0.79,-0.61
17605,2025-09-16T15:05:50.867,-0.43,0.79,-0.61
17606,2025-09-16T15:05:50.876,-0.37,0.67,-0.61
17607,2025-09-16T15:05:50.886,-0.49,0.67,-0.61
17608,2025-09-16T15:05:50.896,-0.37,0.67,-0.67
17609,2025-09-16T15:05:50.905,0.85,0.55,-0.92
17610,2025-09-16T15:05:50.915,1.83,0.79,-1.46
17611,2025-09-16T15:05:50.924,-7.08,1.16,-0.06
17612,2025-09-16T15:05:50.934,2.32,0.85,0.18
17613,2025-09-16T15:05:50.944,3.85,0.12,1.16
17614,2025-09-16T15:05:50.954,4.46,0.55,-0.18
17615,2025-09-16T15:05:50.964,-6.96,1.04,-0.18
17616,2025-09-16T15:05:50.974,2.69,0.49,-0.49
17617,2025-09-16T15:05:50.983,0.0,0.73,0.37
17618,2025-09-16T15:05:50.993,-0.49,0.85,-0.37
17619,2025-09-16T15:05:51.003,-1.77,1.04,0.73
17620,2025-09-16T15:05:51.013,4.33,0.37,0.12
17621,2025-09-16T15:05:51.023,-2.56,1.16,-0.06
17622,2025-09-16T15:05:51.033,0.06,0.67,-0.24
17623,2025-09-16T15:05:51.043,-0.43,0.73,-0.06
17624,2025-09-16T15:05:51.052,0.12,0.61,-0.79
17625,2025-09-16T15:05:51.062,-2.75,0.92,-0.79
17626,2025-09-16T15:05:51.072,-0.98,0.73,-1.1
17627,2025-09-16T15:05:51.082,-1.28,0.73,-0.67
17628,2025-09-16T15:05:51.092,0.55,0.67,-0.98
17629,2025-09-16T15:05:51.101,-1.65,0.98,-0.85
17630,2025-09-16T15:05:51.111,0.92,0.73,-0.49
17631,2025-09-16T15:05:51.120,1.22,0.73,-0.24
17632,2025-09-16T15:05:51.130,-0.06,0.92,-0.37
17633,2025-09-16T15:05:51.140,-0.79,0.92,-0.12
17634,2025-09-16T15:05:51.150,0.79,0.67,0.06
17635,2025-09-16T15:05:51.159,-0.67,0.79,0.0
17636,2025-09-16T15:05:51.169,-1.34,0.79,0.0
17637,2025-09-16T15:05:51.178,0.18,0.61,0.06
17638,2025-09-16T15:05:51.188,0.31,0.61,0.0
17639,2025-09-16T15:05:51.199,-0.61,0.73,-0.18
17640,2025-09-16T15:05:51.209,0.18,0.67,-0.24
17641,2025-09-16T15:05:51.219,0.24,0.67,-0.37
17642,2025-09-16T15:05:51.228,-1.28,0.98,-0.67
17643,2025-09-16T15:05:51.238,-1.28,1.04,-0.79
17644,2025-09-16T15:05:51.248,-0.85,1.04,-0.85
17645,2025-09-16T15:05:51.257,-1.53,1.1,-0.98
17646,2025-09-16T15:05:51.267,-1.04,1.1,-0.92
17647,2025-09-16T15:05:51.277,-0.61,1.04,-0.98
17648,2025-09-16T15:05:51.288,0.0,0.85,-0.49
17649,2025-09-16T15:05:51.297,0.85,0.79,-0.67
17650,2025-09-16T15:05:51.307,-0.49,0.79,-0.37
17651,2025-09-16T15:05:51.316,1.16,0.61,-0.24
17652,2025-09-16T15:05:51.326,-0.43,0.73,0.0
17653,2025-09-16T15:05:51.335,-0.18,0.73,-0.12
17654,2025-09-16T15:05:51.346,-0.55,0.79,0.18
17655,2025-09-16T15:05:51.355,-0.37,0.79,0.12
17656,2025-09-16T15:05:51.365,-0.37,0.79,0.18
17657,2025-09-16T15:05:51.375,0.37,0.73,0.12
17658,2025-09-16T15:05:51.385,-0.31,0.85,-0.06
17659,2025-09-16T15:05:51.395,-0.12,0.79,-0.18
17660,2025-09-16T15:05:51.404,0.06,0.79,-0.37
17661,2025-09-16T15:05:51.414,-1.04,0.92,-0.67
17662,2025-09-16T15:05:51.424,-1.28,0.92,-0.79
17663,2025-09-16T15:05:51.434,-0.85,0.85,-0.92
17664,2025-09-16T15:05:51.444,-1.16,0.92,-1.1
17665,2025-09-16T15:05:51.453,-1.16,0.98,-1.1
17666,2025-09-16T15:05:51.464,-0.24,0.85,-0.98
17667,2025-09-16T15:05:51.473,-0.24,0.92,-0.85
17668,2025-09-16T15:05:51.483,-0.24,0.92,-0.79
17669,2025-09-16T15:05:51.493,0.18,0.85,-0.55
17670,2025-09-16T15:05:51.503,0.06,0.92,-0.43
17671,2025-09-16T15:05:51.513,-0.55,0.98,-0.37
17672,2025-09-16T15:05:51.523,-0.43,0.98,-0.18
17673,2025-09-16T15:05:51.532,-0.12,0.92,-0.12
17674,2025-09-16T15:05:51.542,-0.31,0.92,-0.12
17675,2025-09-16T15:05:51.552,-0.24,0.85,-0.06
17676,2025-09-16T15:05:51.562,0.18,0.79,-0.06
17677,2025-09-16T15:05:51.571,-0.12,0.79,-0.24
17678,2025-09-16T15:05:51.581,-0.49,0.79,-0.37
17679,2025-09-16T15:05:51.591,-0.43,0.73,-0.43
17680,2025-09-16T15:05:51.601,-0.73,0.79,-0.55
17681,2025-09-16T15:05:51.610,-1.04,0.85,-0.67
17682,2025-09-16T15:05:51.620,-0.79,0.85,-0.67
17683,2025-09-16T15:05:51.630,-0.67,0.92,-0.67
17684,2025-09-16T15:05:51.639,-0.49,0.85,-0.67
17685,2025-09-16T15:05:51.649,-0.31,0.85,-0.61
17686,2025-09-16T15:05:51.659,-0.18,0.85,-0.55
17687,2025-09-16T15:05:51.669,-0.24,0.85,-0.49
17688,2025-09-16T15:05:51.678,-0.37,0.92,-0.43
17689,2025-09-16T15:05:51.688,-0.18,0.79,-0.37
17690,2025-09-16T15:05:51.698,-0.31,0.79,-0.37
17691,2025-09-16T15:05:51.708,-0.31,0.79,-0.24
17692,2025-09-16T15:05:51.718,0.0,0.73,-0.24
17693,2025-09-16T15:05:51.728,-0.18,0.73,-0.31
17694,2025-09-16T15:05:51.738,-0.31,0.79,-0.31
17695,2025-09-16T15:05:51.749,-0.06,0.79,-0.31
17696,2025-09-16T15:05:51.758,-0.31,0.79,-0.37
17697,2025-09-16T15:05:51.767,-0.61,0.85,-0.43
17698,2025-09-16T15:05:51.777,-0.61,0.85,-0.49
17699,2025-09-16T15:05:51.786,-0.61,0.85,-0.49
17700,2025-09-16T15:05:51.796,-0.67,0.92,-0.49
17701,2025-09-16T15:05:51.806,-0.43,0.92,-0.49
17702,2025-09-16T15:05:51.816,-0.31,0.85,-0.43
17703,2025-09-16T15:05:51.826,-0.31,0.85,-0.43
17704,2025-09-16T15:05:51.836,-0.18,0.85,-0.37
17705,2025-09-16T15:05:51.846,-0.18,0.85,-0.31
17706,2025-09-16T15:05:51.855,-0.24,0.85,-0.31
17707,2025-09-16T15:05:51.865,-0.24,0.79,-0.24
17708,2025-09-16T15:05:51.875,-0.18,0.79,-0.24
17709,2025-09-16T15:05:51.885,-0.31,0.85,-0.24
17710,2025-09-16T15:05:51.894,-0.18,0.85,-0.18
17711,2025-09-16T15:05:51.904,-0.12,0.85,-0.12
17712,2025-09-16T15:05:51.914,-0.06,0.79,-0.18
17713,2025-09-16T15:05:51.923,-0.24,0.79,-0.18
17714,2025-09-16T15:05:51.933,-0.12,0.79,-0.24
17715,2025-09-16T15:05:51.943,-0.43,0.79,-0.31
17716,2025-09-16T15:05:51.953,-0.37,0.79,-0.31
17717,2025-09-16T15:05:51.962,-0.55,0.79,-0.37
17718,2025-09-16T15:05:51.972,-0.43,0.79,-0.37
17719,2025-09-16T15:05:51.982,-0.55,0.79,-0.37
17720,2025-09-16T15:05:51.992,-0.24,0.79,-0.43
17721,2025-09-16T15:05:52.001,-0.43,0.79,-0.37
17722,2025-09-16T15:05:52.012,0.0,0.73,-0.37
17723,2025-09-16T15:05:52.022,-0.49,0.79,-0.43
17724,2025-09-16T15:05:52.032,-0.12,0.79,-0.37
17725,2025-09-16T15:05:52.041,-0.24,0.79,-0.31
17726,2025-09-16T15:05:52.051,-0.37,0.85,-0.31
17727,2025-09-16T15:05:52.061,-0.12,0.79,-0.31
17728,2025-09-16T15:05:52.071,-0.43,0.79,-0.31
17729,2025-09-16T15:05:52.080,-0.85,0.85,-0.37
17730,2025-09-16T15:05:52.090,-0.37,0.79,-0.31
17731,2025-09-16T15:05:52.100,-0.24,0.73,-0.24
17732,2025-09-16T15:05:52.109,-0.31,0.79,-0.31
17733,2025-09-16T15:05:52.119,-0.06,0.73,-0.37
17734,2025-09-16T15:05:52.129,-0.06,0.79,-0.24
17735,2025-09-16T15:05:52.138,-0.06,0.79,-0.31
17736,2025-09-16T15:05:52.148,-0.31,0.85,-0.37
17737,2025-09-16T15:05:52.159,-0.49,0.85,-0.43
17738,2025-09-16T15:05:52.168,-0.67,0.85,-0.37
17739,2025-09-16T15:05:52.178,-0.18,0.85,-0.37
17740,2025-09-16T15:05:52.188,-0.67,0.92,-0.37
17741,2025-09-16T15:05:52.198,-0.18,0.85,-0.37
17742,2025-09-16T15:05:52.208,-0.24,0.85,-0.37
17743,2025-09-16T15:05:52.217,-0.24,0.79,-0.37
17744,2025-09-16T15:05:52.227,-0.43,0.85,-0.31
17745,2025-09-16T15:05:52.237,-0.18,0.79,-0.37
17746,2025-09-16T15:05:52.246,-0.37,0.85,-0.37
17747,2025-09-16T15:05:52.256,-0.37,0.79,-0.37
17748,2025-09-16T15:05:52.266,-0.31,0.92,-0.37
17749,2025-09-16T15:05:52.276,-0.37,0.85,-0.43
17750,2025-09-16T15:05:52.286,-0.49,0.85,-0.49
17751,2025-09-16T15:05:52.296,-0.37,0.85,-0.49
17752,2025-09-16T15:05:52.305,-0.31,0.85,-0.49
17753,2025-09-16T15:05:52.315,-0.43,0.85,-0.55
17754,2025-09-16T15:05:52.325,-0.31,0.85,-0.55
17755,2025-09-16T15:05:52.334,-0.37,0.79,-0.49
17756,2025-09-16T15:05:52.344,-0.37,0.79,-0.49
17757,2025-09-16T15:05:52.355,-0.43,0.79,-0.43
17758,2025-09-16T15:05:52.364,-0.31,0.79,-0.43
17759,2025-09-16T15:05:52.373,-0.37,0.73,-0.37
17760,2025-09-16T15:05:52.383,-0.24,0.73,-0.37
17761,2025-09-16T15:05:52.393,-0.24,0.73,-0.31
17762,2025-09-16T15:05:52.403,-0.24,0.73,-0.31
17763,2025-09-16T15:05:52.413,-0.18,0.79,-0.31
17764,2025-09-16T15:05:52.423,-0.31,0.79,-0.31
17765,2025-09-16T15:05:52.433,-0.37,0.79,-0.37
17766,2025-09-16T15:05:52.443,-0.43,0.79,-0.37
17767,2025-09-16T15:05:52.453,-0.43,0.79,-0.43
17768,2025-09-16T15:05:52.462,-0.55,0.85,-0.43
17769,2025-09-16T15:05:52.472,-0.43,0.79,-0.49
17770,2025-09-16T15:05:52.482,-0.43,0.79,-0.49
17771,2025-09-16T15:05:52.492,-0.43,0.79,-0.49
17772,2025-09-16T15:05:52.501,-0.24,0.79,-0.49
17773,2025-09-16T15:05:52.511,-0.37,0.79,-0.43
17774,2025-09-16T15:05:52.521,-0.18,0.73,-0.37
17775,2025-09-16T15:05:52.530,-0.24,0.73,-0.37
17776,2025-09-16T15:05:52.540,-0.37,0.79,-0.37
17777,2025-09-16T15:05:52.550,-0.37,0.79,-0.31
17778,2025-09-16T15:05:52.560,-0.37,0.79,-0.37
17779,2025-09-16T15:05:52.570,-0.49,0.79,-0.37
17780,2025-09-16T15:05:52.579,-0.37,0.79,-0.31
17781,2025-09-16T15:05:52.589,-0.37,0.73,-0.31
17782,2025-09-16T15:05:52.599,-0.37,0.73,-0.37
17783,2025-09-16T15:05:52.608,-0.37,0.67,-0.43
17784,2025-09-16T15:05:52.618,-0.37,0.73,-0.37
17785,2025-09-16T15:05:52.628,-0.24,0.73,-0.37
17786,2025-09-16T15:05:52.638,-0.12,0.73,-0.31
17787,2025-09-16T15:05:52.648,-0.18,0.79,-0.43
17788,2025-09-16T15:05:52.657,-0.43,0.85,-0.37
17789,2025-09-16T15:05:52.667,-0.37,0.85,-0.37
17790,2025-09-16T15:05:52.677,-0.55,0.85,-0.37
17791,2025-09-16T15:05:52.687,-0.43,0.85,-0.37
17792,2025-09-16T15:05:52.697,-0.55,0.85,-0.43
17793,2025-09-16T15:05:52.707,-0.49,0.85,-0.43
17794,2025-09-16T15:05:52.716,-0.43,0.85,-0.43
17795,2025-09-16T15:05:52.726,-0.31,0.85,-0.43
17796,2025-09-16T15:05:52.736,-0.24,0.79,-0.43
17797,2025-09-16T15:05:52.746,-0.24,0.79,-0.37
17798,2025-09-16T15:05:52.756,-0.12,0.73,-0.43
17799,2025-09-16T15:05:52.765,-0.24,0.73,-0.31
17800,2025-09-16T15:05:52.775,-0.12,0.73,-0.37
17801,2025-09-16T15:05:52.785,-0.49,0.73,-0.31
17802,2025-09-16T15:05:52.795,-0.31,0.73,-0.31
17803,2025-09-16T15:05:52.805,-0.37,0.73,-0.31
17804,2025-09-16T15:05:52.814,-0.37,0.73,-0.37
17805,2025-09-16T15:05:52.824,-0.37,0.73,-0.37
17806,2025-09-16T15:05:52.834,-0.31,0.79,-0.37
17807,2025-09-16T15:05:52.843,-0.31,0.79,-0.37
17808,2025-09-16T15:05:52.853,-0.37,0.79,-0.43
17809,2025-09-16T15:05:52.863,-0.49,0.79,-0.43
17810,2025-09-16T15:05:52.873,-0.49,0.85,-0.43
17811,2025-09-16T15:05:52.883,-0.49,0.85,-0.43
17812,2025-09-16T15:05:52.893,-0.49,0.85,-0.49
17813,2025-09-16T15:05:52.902,-0.43,0.85,-0.55
17814,2025-09-16T15:05:52.912,-0.31,0.79,-0.55
17815,2025-09-16T15:05:52.923,-0.31,0.85,-0.49
17816,2025-09-16T15:05:52.932,-0.18,0.79,-0.49
17817,2025-09-16T15:05:52.942,-0.24,0.85,-0.49
17818,2025-09-16T15:05:52.951,-0.37,0.79,-0.43
17819,2025-09-16T15:05:52.961,-0.43,0.85,-0.37
17820,2025-09-16T15:05:52.971,-0.31,0.79,-0.37
17821,2025-09-16T15:05:52.981,-0.37,0.79,-0.31
17822,2025-09-16T15:05:52.991,-0.31,0.79,-0.31
17823,2025-09-16T15:05:53.000,-0.31,0.79,-0.24
17824,2025-09-16T15:05:53.010,-0.24,0.79,-0.31
17825,2025-09-16T15:05:53.019,-0.31,0.79,-0.31
17826,2025-09-16T15:05:53.029,-0.37,0.79,-0.24
17827,2025-09-16T15:05:53.040,-0.37,0.73,-0.31
17828,2025-09-16T15:05:53.049,-0.49,0.73,-0.37
17829,2025-09-16T15:05:53.059,-0.43,0.79,-0.37
17830,2025-09-16T15:05:53.069,-0.43,0.73,-0.43
17831,2025-09-16T15:05:53.078,-0.37,0.79,-0.49
17832,2025-09-16T15:05:53.088,-0.31,0.79,-0.49
17833,2025-09-16T15:05:53.098,-0.24,0.79,-0.49
17834,2025-09-16T15:05:53.108,-0.31,0.79,-0.49
17835,2025-09-16T15:05:53.117,-0.43,0.79,-0.49
17836,2025-09-16T15:05:53.127,-0.49,0.79,-0.43
17837,2025-09-16T15:05:53.137,-0.49,0.79,-0.43
17838,2025-09-16T15:05:53.147,-0.31,0.79,-0.37
17839,2025-09-16T15:05:53.156,-0.37,0.79,-0.37
17840,2025-09-16T15:05:53.166,-0.24,0.79,-0.31
17841,2025-09-16T15:05:53.176,-0.24,0.79,-0.24
17842,2025-09-16T15:05:53.186,-0.24,0.79,-0.31
17843,2025-09-16T15:05:53.197,-0.18,0.79,-0.37
17844,2025-09-16T15:05:53.206,-0.31,0.79,-0.37
17845,2025-09-16T15:05:53.217,-0.43,0.79,-0.43
17846,2025-09-16T15:05:53.226,-0.31,0.79,-0.43
17847,2025-09-16T15:05:53.236,-0.49,0.85,-0.49
17848,2025-09-16T15:05:53.246,-0.61,0.85,-0.49
17849,2025-09-16T15:05:53.256,-0.49,0.85,-0.49
17850,2025-09-16T15:05:53.266,-0.43,0.85,-0.49
17851,2025-09-16T15:05:53.275,-0.43,0.79,-0.49
17852,2025-09-16T15:05:53.284,-0.37,0.79,-0.43
17853,2025-09-16T15:05:53.294,-0.31,0.85,-0.43
17854,2025-09-16T15:05:53.305,-0.37,0.79,-0.37
17855,2025-09-16T15:05:53.314,-0.31,0.85,-0.37
17856,2025-09-16T15:05:53.324,-0.31,0.79,-0.31
17857,2025-09-16T15:05:53.334,-0.31,0.85,-0.24
17858,2025-09-16T15:05:53.343,-0.24,0.79,-0.24
17859,2025-09-16T15:05:53.353,-0.18,0.79,-0.24
17860,2025-09-16T15:05:53.363,-0.24,0.85,-0.31
17861,2025-09-16T15:05:53.373,-0.18,0.79,-0.31
17862,2025-09-16T15:05:53.382,-0.18,0.85,-0.37
17863,2025-09-16T15:05:53.393,-0.43,0.85,-0.37
17864,2025-09-16T15:05:53.402,-0.37,0.85,-0.43
17865,2025-09-16T15:05:53.412,-0.49,0.85,-0.43
17866,2025-09-16T15:05:53.422,-0.55,0.85,-0.55
17867,2025-09-16T15:05:53.431,-0.67,0.85,-0.49
17868,2025-09-16T15:05:53.441,-0.55,0.85,-0.49
17869,2025-09-16T15:05:53.451,-0.49,0.92,-0.49
17870,2025-09-16T15:05:53.461,-0.37,0.85,-0.49
17871,2025-09-16T15:05:53.471,-0.24,0.79,-0.43
17872,2025-09-16T15:05:53.480,-0.18,0.79,-0.37
17873,2025-09-16T15:05:53.490,-0.31,0.79,-0.37
17874,2025-09-16T15:05:53.500,-0.31,0.79,-0.37
17875,2025-09-16T15:05:53.510,-0.18,0.73,-0.31
17876,2025-09-16T15:05:53.520,-0.06,0.73,-0.24
17877,2025-09-16T15:05:53.529,-0.49,0.79,-0.37
17878,2025-09-16T15:05:53.539,-0.61,0.79,-0.37
17879,2025-09-16T15:05:53.549,-0.43,0.79,-0.31
17880,2025-09-16T15:05:53.559,-0.06,0.73,-0.37
17881,2025-09-16T15:05:53.569,-0.31,0.79,-0.37
17882,2025-09-16T15:05:53.579,-0.49,0.85,-0.43
17883,2025-09-16T15:05:53.588,-0.18,0.79,-0.37
17884,2025-09-16T15:05:53.598,-0.24,0.85,-0.37
17885,2025-09-16T15:05:53.608,-0.37,0.79,-0.43
17886,2025-09-16T15:05:53.617,-0.37,0.85,-0.43
17887,2025-09-16T15:05:53.627,-0.43,0.85,-0.49
17888,2025-09-16T15:05:53.637,-0.37,0.85,-0.43
17889,2025-09-16T15:05:53.647,-0.49,0.79,-0.49
17890,2025-09-16T15:05:53.656,-0.61,0.85,-0.49
17891,2025-09-16T15:05:53.666,-0.37,0.79,-0.49
17892,2025-09-16T15:05:53.677,-0.18,0.79,-0.49
17893,2025-09-16T15:05:53.686,-0.31,0.79,-0.43
17894,2025-09-16T15:05:53.696,-0.24,0.73,-0.49
17895,2025-09-16T15:05:53.706,-0.37,0.73,-0.49
17896,2025-09-16T15:05:53.715,-0.43,0.73,-0.43
17897,2025-09-16T15:05:53.725,-0.49,0.73,-0.43
17898,2025-09-16T15:05:53.735,-0.55,0.79,-0.43
17899,2025-09-16T15:05:53.745,-0.37,0.79,-0.37
17900,2025-09-16T15:05:53.755,-0.37,0.79,-0.37
17901,2025-09-16T15:05:53.764,-0.24,0.73,-0.37
17902,2025-09-16T15:05:53.774,-0.12,0.73,-0.31
17903,2025-09-16T15:05:53.784,-0.18,0.79,-0.31
17904,2025-09-16T15:05:53.793,-0.18,0.79,-0.31
17905,2025-09-16T15:05:53.802,-0.31,0.79,-0.31
17906,2025-09-16T15:05:53.813,-0.12,0.73,-0.31
17907,2025-09-16T15:05:53.823,-0.61,0.79,-0.37
17908,2025-09-16T15:05:53.833,-0.67,0.79,-0.37
17909,2025-09-16T15:05:53.843,-0.43,0.79,-0.37
17910,2025-09-16T15:05:53.852,-0.49,0.79,-0.37
17911,2025-09-16T15:05:53.862,-0.12,0.79,-0.37
17912,2025-09-16T15:05:53.872,-0.24,0.79,-0.37
17913,2025-09-16T15:05:53.882,-0.24,0.79,-0.43
17914,2025-09-16T15:05:53.892,-0.24,0.79,-0.37
17915,2025-09-16T15:05:53.901,-0.24,0.79,-0.37
17916,2025-09-16T15:05:53.911,-0.43,0.79,-0.37
17917,2025-09-16T15:05:53.921,-0.43,0.79,-0.37
17918,2025-09-16T15:05:53.930,-0.24,0.79,-0.37
17919,2025-09-16T15:05:53.941,-0.24,0.79,-0.31
17920,2025-09-16T15:05:53.950,-0.49,0.79,-0.37
17921,2025-09-16T15:05:53.960,-0.37,0.79,-0.37
17922,2025-09-16T15:05:53.970,-0.18,0.79,-0.37
17923,2025-09-16T15:05:53.980,-0.31,0.79,-0.43
17924,2025-09-16T15:05:53.990,-0.37,0.79,-0.49
17925,2025-09-16T15:05:53.999,-0.49,0.79,-0.49
17926,2025-09-16T15:05:54.009,-0.31,0.79,-0.49
17927,2025-09-16T15:05:54.019,-0.43,0.79,-0.43
17928,2025-09-16T15:05:54.028,-0.67,0.85,-0.55
17929,2025-09-16T15:05:54.038,-0.49,0.85,-0.49
17930,2025-09-16T15:05:54.048,-0.37,0.85,-0.49
17931,2025-09-16T15:05:54.058,-0.37,0.85,-0.43
17932,2025-09-16T15:05:54.068,-0.31,0.85,-0.43
17933,2025-09-16T15:05:54.078,-0.37,0.92,-0.43
17934,2025-09-16T15:05:54.087,-0.31,0.85,-0.31
17935,2025-09-16T15:05:54.097,-0.37,0.85,-0.31
17936,2025-09-16T15:05:54.107,-0.31,0.85,-0.31
17937,2025-09-16T15:05:54.117,-0.24,0.79,-0.31
17938,2025-09-16T15:05:54.127,-0.31,0.85,-0.31
17939,2025-09-16T15:05:54.136,-0.12,0.85,-0.37
17940,2025-09-16T15:05:54.146,-0.49,0.85,-0.37
17941,2025-09-16T15:05:54.156,-0.49,0.85,-0.43
17942,2025-09-16T15:05:54.166,-0.49,0.79,-0.43
17943,2025-09-16T15:05:54.175,-0.18,0.73,-0.43
17944,2025-09-16T15:05:54.186,-0.24,0.73,-0.43
17945,2025-09-16T15:05:54.195,-0.43,0.79,-0.43
17946,2025-09-16T15:05:54.205,-0.31,0.73,-0.43
17947,2025-09-16T15:05:54.214,-0.18,0.73,-0.43
17948,2025-09-16T15:05:54.224,-0.43,0.79,-0.43
17949,2025-09-16T15:05:54.234,-0.43,0.79,-0.37
17950,2025-09-16T15:05:54.244,-0.49,0.79,-0.37
17951,2025-09-16T15:05:54.254,-0.37,0.79,-0.31
17952,2025-09-16T15:05:54.264,-0.24,0.79,-0.37
17953,2025-09-16T15:05:54.274,-0.37,0.79,-0.31
17954,2025-09-16T15:05:54.283,-0.24,0.79,-0.37
17955,2025-09-16T15:05:54.291,-0.31,0.79,-0.37
17956,2025-09-16T15:05:54.302,-0.06,0.73,-0.31
17957,2025-09-16T15:05:54.313,-0.06,0.67,-0.31
17958,2025-09-16T15:05:54.322,-0.43,0.79,-0.43
17959,2025-09-16T15:05:54.332,-0.61,0.79,-0.49
17960,2025-09-16T15:05:54.342,-0.31,0.73,-0.49
17961,2025-09-16T15:05:54.352,-0.67,0.79,-0.43
17962,2025-09-16T15:05:54.361,-0.37,0.73,-0.43
17963,2025-09-16T15:05:54.371,-0.31,0.73,-0.43
17964,2025-09-16T15:05:54.381,-0.37,0.79,-0.37
17965,2025-09-16T15:05:54.391,-0.24,0.79,-0.31
17966,2025-09-16T15:05:54.401,-0.18,0.79,-0.24
17967,2025-09-16T15:05:54.410,-0.24,0.79,-0.24
17968,2025-09-16T15:05:54.420,-0.18,0.85,-0.31
17969,2025-09-16T15:05:54.430,-0.24,0.79,-0.31
17970,2025-09-16T15:05:54.440,-0.24,0.85,-0.31
17971,2025-09-16T15:05:54.450,-0.37,0.85,-0.37
17972,2025-09-16T15:05:54.459,-0.37,0.85,-0.37
17973,2025-09-16T15:05:54.469,-0.49,0.85,-0.49
17974,2025-09-16T15:05:54.479,-0.61,0.85,-0.49
17975,2025-09-16T15:05:54.489,-0.49,0.79,-0.55
17976,2025-09-16T15:05:54.499,-0.49,0.85,-0.55
17977,2025-09-16T15:05:54.508,-0.37,0.79,-0.55
17978,2025-09-16T15:05:54.517,-0.49,0.79,-0.55
17979,2025-09-16T15:05:54.528,-0.55,0.85,-0.55
17980,2025-09-16T15:05:54.538,-0.06,0.79,-0.43
17981,2025-09-16T15:05:54.548,-0.24,0.85,-0.43
17982,2025-09-16T15:05:54.558,-0.37,0.85,-0.43
17983,2025-09-16T15:05:54.567,-0.37,0.79,-0.43
17984,2025-09-16T15:05:54.577,-0.61,0.73,-0.37
17985,2025-09-16T15:05:54.587,-0.49,0.73,-0.31
17986,2025-09-16T15:05:54.596,-0.18,0.73,-0.24
17987,2025-09-16T15:05:54.606,-0.24,0.73,-0.31
17988,2025-09-16T15:05:54.616,-0.06,0.73,-0.31
17989,2025-09-16T15:05:54.626,0.0,0.73,-0.31
17990,2025-09-16T15:05:54.635,-0.31,0.79,-0.37
17991,2025-09-16T15:05:54.645,-0.31,0.79,-0.37
17992,2025-09-16T15:05:54.655,-0.55,0.79,-0.43
17993,2025-09-16T15:05:54.665,-0.61,0.79,-0.43
17994,2025-09-16T15:05:54.675,-0.61,0.79,-0.43
17995,2025-09-16T15:05:54.685,-0.49,0.79,-0.49
17996,2025-09-16T15:05:54.694,-0.31,0.79,-0.43
17997,2025-09-16T15:05:54.704,-0.12,0.79,-0.43
17998,2025-09-16T15:05:54.713,-0.18,0.79,-0.43
17999,2025-09-16T15:05:54.723,-0.12,0.79,-0.43
