sample,timestamp,gyro_x,gyro_y,gyro_z
11000,2025-09-16T15:04:46.203,-33.02,4.27,-24.6
11001,2025-09-16T15:04:46.213,-31.56,4.27,-24.54
11002,2025-09-16T15:04:46.222,-28.5,4.03,-22.83
11003,2025-09-16T15:04:46.232,-25.57,3.66,-20.2
11004,2025-09-16T15:04:46.242,-21.67,3.17,-16.66
11005,2025-09-16T15:04:46.252,-16.85,2.62,-12.51
11006,2025-09-16T15:04:46.261,-11.72,2.01,-8.24
11007,2025-09-16T15:04:46.271,-5.37,1.28,-3.6
11008,2025-09-16T15:04:46.281,2.01,0.55,0.43
11009,2025-09-16T15:04:46.290,6.23,0.06,3.23
11010,2025-09-16T15:04:46.300,8.24,-0.12,4.58
11011,2025-09-16T15:04:46.310,7.81,-0.12,4.7
11012,2025-09-16T15:04:46.320,5.37,0.06,4.09
11013,2025-09-16T15:04:46.330,3.48,0.24,3.48
11014,2025-09-16T15:04:46.339,2.14,0.31,3.17
11015,2025-09-16T15:04:46.349,2.2,0.43,3.3
11016,2025-09-16T15:04:46.360,3.54,0.37,4.09
11017,2025-09-16T15:04:46.369,5.62,0.18,5.31
11018,2025-09-16T15:04:46.379,7.87,0.0,6.47
11019,2025-09-16T15:04:46.389,8.85,-0.18,7.14
11020,2025-09-16T15:04:46.399,9.28,-0.24,7.39
11021,2025-09-16T15:04:46.409,10.31,-0.37,8.0
11022,2025-09-16T15:04:46.418,11.05,-0.49,8.18
11023,2025-09-16T15:04:46.428,9.64,-0.49,7.93
11024,2025-09-16T15:04:46.437,9.52,-0.37,7.81
11025,2025-09-16T15:04:46.447,9.7,-0.37,7.69
11026,2025-09-16T15:04:46.458,8.54,-0.24,7.39
11027,2025-09-16T15:04:46.467,8.12,-0.12,6.96
11028,2025-09-16T15:04:46.477,7.39,0.0,6.35
11029,2025-09-16T15:04:46.487,6.53,0.18,5.55
11030,2025-09-16T15:04:46.496,5.86,0.24,4.64
11031,2025-09-16T15:04:46.506,4.7,0.31,3.6
11032,2025-09-16T15:04:46.516,3.54,0.43,2.44
11033,2025-09-16T15:04:46.526,2.26,0.55,1.34
11034,2025-09-16T15:04:46.536,0.61,0.61,0.24
11035,2025-09-16T15:04:46.545,-0.92,0.79,-0.79
11036,2025-09-16T15:04:46.555,-2.08,0.85,-1.53
11037,2025-09-16T15:04:46.565,-2.75,0.98,-1.95
11038,2025-09-16T15:04:46.574,-2.87,1.04,-2.08
11039,2025-09-16T15:04:46.584,-2.56,1.04,-2.01
11040,2025-09-16T15:04:46.595,-2.32,1.04,-2.14
11041,2025-09-16T15:04:46.604,-2.2,1.1,-2.56
11042,2025-09-16T15:04:46.613,-2.62,1.22,-3.85
11043,2025-09-16T15:04:46.623,-6.29,1.53,-5.86
11044,2025-09-16T15:04:46.633,-8.36,1.83,-8.0
11045,2025-09-16T15:04:46.643,-12.51,2.14,-9.4
11046,2025-09-16T15:04:46.653,-13.49,2.32,-10.56
11047,2025-09-16T15:04:46.667,-14.83,2.38,-10.01
11048,2025-09-16T15:04:46.673,-10.62,2.01,-8.67
11049,2025-09-16T15:04:46.683,-8.36,1.83,-6.53
11050,2025-09-16T15:04:46.696,-4.33,1.46,-5.31
11051,2025-09-16T15:04:46.702,-4.21,1.34,-5.25
11052,2025-09-16T15:04:46.711,-6.1,1.4,-6.16
11053,2025-09-16T15:04:46.722,-7.26,1.53,-6.96
11054,2025-09-16T15:04:46.731,-7.63,1.65,-7.93
11055,2025-09-16T15:04:46.741,-10.99,2.01,-9.46
11056,2025-09-16T15:04:46.751,-16.11,2.38,-10.86
11057,2025-09-16T15:04:46.760,-17.64,2.5,-10.68
11058,2025-09-16T15:04:46.770,-13.06,2.2,-8.54
11059,2025-09-16T15:04:46.780,-6.96,1.71,-5.55
11060,2025-09-16T15:04:46.790,-2.08,1.22,-2.87
11061,2025-09-16T15:04:46.799,1.89,0.79,-1.22
11062,2025-09-16T15:04:46.809,1.71,0.67,-0.79
11063,2025-09-16T15:04:46.819,-0.79,0.79,-1.16
11064,2025-09-16T15:04:46.829,-3.23,0.79,-1.04
11065,2025-09-16T15:04:46.839,-2.2,0.61,0.31
11066,2025-09-16T15:04:46.849,1.53,0.31,2.56
11067,2025-09-16T15:04:46.859,5.13,0.0,4.94
11068,2025-09-16T15:04:46.869,8.48,-0.31,7.2
11069,2025-09-16T15:04:46.878,11.54,-0.49,8.79
11070,2025-09-16T15:04:46.888,13.12,-0.61,9.4
11071,2025-09-16T15:04:46.898,13.0,-0.49,8.85
11072,2025-09-16T15:04:46.908,10.5,-0.31,7.63
11073,2025-09-16T15:04:46.918,7.51,0.0,5.98
11074,2025-09-16T15:04:46.927,5.0,0.24,4.21
11075,2025-09-16T15:04:46.937,2.2,0.49,2.62
11076,2025-09-16T15:04:46.947,0.31,0.67,1.4
11077,2025-09-16T15:04:46.956,-0.12,0.73,0.67
11078,2025-09-16T15:04:46.966,0.31,0.67,0.31
11079,2025-09-16T15:04:46.975,0.79,0.61,-0.37
11080,2025-09-16T15:04:46.985,-0.55,0.73,-1.53
11081,2025-09-16T15:04:46.995,-1.95,1.04,-3.6
11082,2025-09-16T15:04:47.005,-5.43,1.34,-7.32
11083,2025-09-16T15:04:47.015,-14.53,2.32,-10.62
11084,2025-09-16T15:04:47.025,-15.14,2.5,-14.89
11085,2025-09-16T15:04:47.034,-23.74,3.23,-16.97
11086,2025-09-16T15:04:47.044,-21.55,3.3,-18.92
11087,2025-09-16T15:04:47.054,-24.35,3.6,-19.41
11088,2025-09-16T15:04:47.064,-23.25,3.6,-20.2
11089,2025-09-16T15:04:47.074,-24.54,3.66,-20.63
11090,2025-09-16T15:04:47.084,-24.11,3.66,-20.94
11091,2025-09-16T15:04:47.093,-24.35,3.72,-20.75
11092,2025-09-16T15:04:47.103,-23.62,3.72,-20.75
11093,2025-09-16T15:04:47.113,-24.66,3.54,-19.65
11094,2025-09-16T15:04:47.123,-22.34,3.11,-16.36
11095,2025-09-16T15:04:47.133,-13.85,2.56,-12.39
11096,2025-09-16T15:04:47.142,-8.97,2.01,-8.91
11097,2025-09-16T15:04:47.152,-8.48,1.65,-5.74
11098,2025-09-16T15:04:47.162,-4.64,1.04,-1.71
11099,2025-09-16T15:04:47.171,2.99,0.31,3.17
11100,2025-09-16T15:04:47.182,9.89,-0.37,7.63
11101,2025-09-16T15:04:47.191,13.67,-0.79,10.56
11102,2025-09-16T15:04:47.201,14.53,-0.92,12.08
11103,2025-09-16T15:04:47.210,14.4,-1.04,12.7
11104,2025-09-16T15:04:47.221,13.49,-1.1,13.49
11105,2025-09-16T15:04:47.231,14.65,-1.16,14.89
11106,2025-09-16T15:04:47.241,18.8,-1.59,16.85
11107,2025-09-16T15:04:47.250,21.73,-1.95,19.04
11108,2025-09-16T15:04:47.260,24.9,-2.44,21.0
11109,2025-09-16T15:04:47.270,28.02,-2.69,23.19
11110,2025-09-16T15:04:47.280,31.8,-2.87,24.41
11111,2025-09-16T15:04:47.290,29.72,-2.62,23.62
11112,2025-09-16T15:04:47.299,23.74,-2.32,22.03
11113,2025-09-16T15:04:47.309,26.25,-1.71,18.86
11114,2025-09-16T15:04:47.319,18.31,-1.59,13.31
11115,2025-09-16T15:04:47.329,5.62,-0.06,10.07
11116,2025-09-16T15:04:47.338,14.22,-0.49,4.21
11117,2025-09-16T15:04:47.348,-3.3,0.85,2.56
11118,2025-09-16T15:04:47.358,4.27,0.55,-1.4
11119,2025-09-16T15:04:47.368,-5.68,1.34,-3.3
11120,2025-09-16T15:04:47.377,-7.14,1.59,-6.16
11121,2025-09-16T15:04:47.387,-11.96,2.08,-7.45
11122,2025-09-16T15:04:47.397,-10.44,2.08,-8.73
11123,2025-09-16T15:04:47.407,-11.66,2.32,-9.28
11124,2025-09-16T15:04:47.417,-11.11,2.26,-10.19
11125,2025-09-16T15:04:47.426,-13.24,2.32,-9.89
11126,2025-09-16T15:04:47.436,-10.56,1.95,-8.79
11127,2025-09-16T15:04:47.446,-8.3,1.71,-6.47
11128,2025-09-16T15:04:47.455,-4.21,1.28,-4.27
11129,2025-09-16T15:04:47.466,-2.56,1.04,-2.62
11130,2025-09-16T15:04:47.475,-2.14,0.92,-1.95
11131,2025-09-16T15:04:47.485,-2.26,0.98,-1.65
11132,2025-09-16T15:04:47.495,-1.65,0.98,-1.71
11133,2025-09-16T15:04:47.505,-2.01,1.04,-1.77
11134,2025-09-16T15:04:47.515,-1.95,1.04,-1.89
11135,2025-09-16T15:04:47.525,-2.2,1.04,-1.71
11136,2025-09-16T15:04:47.535,-1.71,1.04,-1.4
11137,2025-09-16T15:04:47.544,-0.85,0.98,-1.46
11138,2025-09-16T15:04:47.554,-2.38,1.04,-0.98
11139,2025-09-16T15:04:47.563,0.0,0.85,-0.55
11140,2025-09-16T15:04:47.573,0.55,0.73,0.12
11141,2025-09-16T15:04:47.583,0.79,0.61,0.49
11142,2025-09-16T15:04:47.592,0.37,0.61,0.98
11143,2025-09-16T15:04:47.602,2.14,0.49,1.89
11144,2025-09-16T15:04:47.613,3.85,0.31,3.11
11145,2025-09-16T15:04:47.623,5.55,0.18,3.91
11146,2025-09-16T15:04:47.632,5.55,0.12,4.33
11147,2025-09-16T15:04:47.645,5.55,0.12,4.52
11148,2025-09-16T15:04:47.651,5.86,0.12,4.33
11149,2025-09-16T15:04:47.661,4.46,0.31,3.72
11150,2025-09-16T15:04:47.672,3.36,0.37,2.87
11151,2025-09-16T15:04:47.681,1.83,0.55,2.08
11152,2025-09-16T15:04:47.690,1.28,0.67,1.4
11153,2025-09-16T15:04:47.700,1.34,0.67,0.85
11154,2025-09-16T15:04:47.710,0.73,0.73,0.55
11155,2025-09-16T15:04:47.720,0.67,0.79,0.37
11156,2025-09-16T15:04:47.729,0.98,0.67,0.43
11157,2025-09-16T15:04:47.739,1.04,0.61,0.55
11158,2025-09-16T15:04:47.749,0.55,0.61,0.85
11159,2025-09-16T15:04:47.759,1.53,0.49,1.22
11160,2025-09-16T15:04:47.768,2.32,0.37,1.83
11161,2025-09-16T15:04:47.778,2.99,0.31,2.08
11162,2025-09-16T15:04:47.788,2.26,0.43,2.01
11163,2025-09-16T15:04:47.798,2.32,0.43,2.08
11164,2025-09-16T15:04:47.808,2.99,0.43,1.95
11165,2025-09-16T15:04:47.818,2.2,0.55,1.59
11166,2025-09-16T15:04:47.827,1.28,0.61,0.79
11167,2025-09-16T15:04:47.837,-0.31,0.73,0.24
11168,2025-09-16T15:04:47.847,-0.12,0.79,-0.31
11169,2025-09-16T15:04:47.857,-0.73,0.79,-0.79
11170,2025-09-16T15:04:47.867,-2.01,0.85,-1.34
11171,2025-09-16T15:04:47.877,-2.56,0.92,-1.53
11172,2025-09-16T15:04:47.887,-1.65,0.85,-1.34
11173,2025-09-16T15:04:47.896,-1.04,0.92,-1.1
11174,2025-09-16T15:04:47.905,-1.65,0.85,-0.61
11175,2025-09-16T15:04:47.916,0.98,0.67,0.55
11176,2025-09-16T15:04:47.926,3.91,0.43,1.65
11177,2025-09-16T15:04:47.936,3.3,0.55,2.01
11178,2025-09-16T15:04:47.946,1.65,0.61,2.08
11179,2025-09-16T15:04:47.955,1.89,0.55,2.62
11180,2025-09-16T15:04:47.965,3.72,0.49,2.69
11181,2025-09-16T15:04:47.974,3.11,0.43,2.5
11182,2025-09-16T15:04:47.984,2.01,0.43,1.53
11183,2025-09-16T15:04:47.994,0.12,0.55,0.85
11184,2025-09-16T15:04:48.004,1.77,0.55,-0.12
11185,2025-09-16T15:04:48.014,-0.85,0.79,-1.28
11186,2025-09-16T15:04:48.023,-2.93,0.98,-2.44
11187,2025-09-16T15:04:48.033,-3.91,1.1,-3.23
11188,2025-09-16T15:04:48.053,-4.21,1.22,-3.42
11189,2025-09-16T15:04:48.053,-4.21,1.28,-3.3
11190,2025-09-16T15:04:48.063,-4.09,1.22,-2.87
11191,2025-09-16T15:04:48.073,-3.72,1.22,-2.14
11192,2025-09-16T15:04:48.083,-1.83,1.04,-1.22
11193,2025-09-16T15:04:48.092,-0.49,0.79,-0.06
11194,2025-09-16T15:04:48.102,1.22,0.55,1.04
11195,2025-09-16T15:04:48.112,2.75,0.37,2.08
11196,2025-09-16T15:04:48.122,4.33,0.18,2.87
11197,2025-09-16T15:04:48.131,4.64,0.12,3.17
11198,2025-09-16T15:04:48.141,4.21,0.12,2.99
11199,2025-09-16T15:04:48.151,3.3,0.31,2.56
11200,2025-09-16T15:04:48.160,2.5,0.43,1.89
11201,2025-09-16T15:04:48.170,1.4,0.61,1.1
11202,2025-09-16T15:04:48.181,0.12,0.73,0.24
11203,2025-09-16T15:04:48.190,-0.67,0.85,-0.49
11204,2025-09-16T15:04:48.200,-1.28,0.98,-1.04
11205,2025-09-16T15:04:48.210,-1.59,1.04,-1.4
11206,2025-09-16T15:04:48.220,-1.71,1.04,-1.59
11207,2025-09-16T15:04:48.230,-2.01,0.98,-1.65
11208,2025-09-16T15:04:48.239,-1.95,0.92,-1.46
11209,2025-09-16T15:04:48.249,-1.28,0.85,-0.98
11210,2025-09-16T15:04:48.259,-0.43,0.73,-0.37
11211,2025-09-16T15:04:48.268,0.31,0.67,0.24
11212,2025-09-16T15:04:48.279,1.1,0.55,0.85
11213,2025-09-16T15:04:48.288,1.89,0.49,1.4
11214,2025-09-16T15:04:48.298,2.38,0.43,1.65
11215,2025-09-16T15:04:48.308,2.2,0.49,1.65
11216,2025-09-16T15:04:48.318,2.26,0.55,1.59
11217,2025-09-16T15:04:48.327,1.83,0.61,1.22
11218,2025-09-16T15:04:48.337,0.79,0.67,0.73
11219,2025-09-16T15:04:48.347,0.18,0.73,0.12
11220,2025-09-16T15:04:48.356,-0.55,0.85,-0.61
11221,2025-09-16T15:04:48.366,-1.4,0.92,-0.98
11222,2025-09-16T15:04:48.376,-0.98,0.92,-1.34
11223,2025-09-16T15:04:48.386,-1.77,0.92,-1.4
11224,2025-09-16T15:04:48.397,-1.4,0.92,-1.4
11225,2025-09-16T15:04:48.405,-1.53,0.85,-1.22
11226,2025-09-16T15:04:48.415,-1.1,0.79,-0.98
11227,2025-09-16T15:04:48.425,-0.67,0.79,-0.73
11228,2025-09-16T15:04:48.434,-0.67,0.79,-0.43
11229,2025-09-16T15:04:48.444,-0.24,0.73,-0.12
11230,2025-09-16T15:04:48.454,0.18,0.73,0.06
11231,2025-09-16T15:04:48.464,0.18,0.79,0.12
11232,2025-09-16T15:04:48.474,0.24,0.73,0.12
11233,2025-09-16T15:04:48.484,0.43,0.73,0.18
11234,2025-09-16T15:04:48.494,0.67,0.73,0.18
11235,2025-09-16T15:04:48.503,0.49,0.73,0.06
11236,2025-09-16T15:04:48.513,0.12,0.79,0.0
11237,2025-09-16T15:04:48.523,0.0,0.79,0.0
11238,2025-09-16T15:04:48.533,-0.18,0.79,-0.06
11239,2025-09-16T15:04:48.543,-0.37,0.79,-0.18
11240,2025-09-16T15:04:48.552,-0.55,0.79,-0.24
11241,2025-09-16T15:04:48.561,-0.37,0.79,-0.24
11242,2025-09-16T15:04:48.572,0.0,0.79,-0.18
11243,2025-09-16T15:04:48.581,0.12,0.79,-0.18
11244,2025-09-16T15:04:48.591,-0.12,0.79,-0.31
11245,2025-09-16T15:04:48.601,-0.24,0.85,-0.31
11246,2025-09-16T15:04:48.613,-0.24,0.79,-0.24
11247,2025-09-16T15:04:48.621,-0.37,0.79,-0.18
11248,2025-09-16T15:04:48.630,-0.37,0.79,-0.12
11249,2025-09-16T15:04:48.640,-0.31,0.79,0.0
11250,2025-09-16T15:04:48.650,0.06,0.79,0.12
11251,2025-09-16T15:04:48.660,0.43,0.73,0.31
11252,2025-09-16T15:04:48.670,0.61,0.73,0.31
11253,2025-09-16T15:04:48.679,0.49,0.73,0.24
11254,2025-09-16T15:04:48.689,0.55,0.73,0.18
11255,2025-09-16T15:04:48.699,0.37,0.73,-0.06
11256,2025-09-16T15:04:48.709,-0.31,0.73,-0.37
11257,2025-09-16T15:04:48.719,-0.73,0.79,-0.61
11258,2025-09-16T15:04:48.729,-0.85,0.85,-0.73
11259,2025-09-16T15:04:48.739,-0.92,0.85,-0.79
11260,2025-09-16T15:04:48.749,-1.1,0.85,-0.85
11261,2025-09-16T15:04:48.758,-1.28,0.92,-0.92
11262,2025-09-16T15:04:48.768,-0.98,0.85,-0.79
11263,2025-09-16T15:04:48.778,-0.31,0.79,-0.61
11264,2025-09-16T15:04:48.787,-0.37,0.79,-0.49
11265,2025-09-16T15:04:48.797,-0.24,0.73,-0.24
11266,2025-09-16T15:04:48.807,0.18,0.67,-0.06
11267,2025-09-16T15:04:48.817,0.24,0.67,0.06
11268,2025-09-16T15:04:48.826,0.24,0.67,0.12
11269,2025-09-16T15:04:48.836,0.0,0.67,0.06
11270,2025-09-16T15:04:48.846,0.0,0.67,0.06
11271,2025-09-16T15:04:48.856,0.31,0.67,0.06
11272,2025-09-16T15:04:48.865,0.31,0.73,0.06
11273,2025-09-16T15:04:48.875,0.43,0.73,0.06
11274,2025-09-16T15:04:48.884,0.85,0.67,0.31
11275,2025-09-16T15:04:48.894,0.67,0.73,0.37
11276,2025-09-16T15:04:48.904,-0.12,0.85,0.06
11277,2025-09-16T15:04:48.914,-0.49,0.85,0.06
11278,2025-09-16T15:04:48.923,0.18,0.79,0.0
11279,2025-09-16T15:04:48.934,-0.18,0.85,-0.12
11280,2025-09-16T15:04:48.944,0.37,0.73,-0.12
11281,2025-09-16T15:04:48.953,0.61,0.67,-0.06
11282,2025-09-16T15:04:48.964,0.12,0.73,0.0
11283,2025-09-16T15:04:48.974,-0.06,0.73,-0.18
11284,2025-09-16T15:04:48.983,-0.85,0.79,-0.37
11285,2025-09-16T15:04:48.994,-1.1,0.85,-0.61
11286,2025-09-16T15:04:49.003,-1.22,0.92,-0.73
11287,2025-09-16T15:04:49.013,-0.61,0.85,-0.79
11288,2025-09-16T15:04:49.022,-0.55,0.85,-0.79
11289,2025-09-16T15:04:49.032,-0.67,0.79,-0.92
11290,2025-09-16T15:04:49.042,-0.92,0.85,-0.92
11291,2025-09-16T15:04:49.052,-0.98,0.85,-0.92
11292,2025-09-16T15:04:49.061,-0.79,0.79,-0.79
11293,2025-09-16T15:04:49.071,-1.04,0.79,-0.67
11294,2025-09-16T15:04:49.081,-1.22,0.79,-0.55
11295,2025-09-16T15:04:49.090,-0.73,0.73,-0.24
11296,2025-09-16T15:04:49.100,0.43,0.67,0.12
11297,2025-09-16T15:04:49.110,0.73,0.61,0.31
11298,2025-09-16T15:04:49.120,0.98,0.61,0.49
11299,2025-09-16T15:04:49.129,1.59,0.55,0.73
11300,2025-09-16T15:04:49.139,1.34,0.61,0.85
11301,2025-09-16T15:04:49.150,0.67,0.61,0.73
11302,2025-09-16T15:04:49.159,0.49,0.61,0.61
11303,2025-09-16T15:04:49.169,0.73,0.61,0.67
11304,2025-09-16T15:04:49.179,1.04,0.67,0.55
11305,2025-09-16T15:04:49.189,0.92,0.67,0.49
11306,2025-09-16T15:04:49.200,0.98,0.67,0.37
11307,2025-09-16T15:04:49.208,0.73,0.67,0.24
11308,2025-09-16T15:04:49.218,0.24,0.67,0.0
11309,2025-09-16T15:04:49.228,-0.67,0.85,-0.31
11310,2025-09-16T15:04:49.238,-1.22,0.92,-0.61
11311,2025-09-16T15:04:49.247,-1.16,0.92,-0.73
11312,2025-09-16T15:04:49.256,-0.98,0.92,-0.73
11313,2025-09-16T15:04:49.267,-0.73,0.85,-0.79
11314,2025-09-16T15:04:49.277,-0.67,0.85,-0.85
11315,2025-09-16T15:04:49.287,-0.79,0.79,-0.92
11316,2025-09-16T15:04:49.297,-0.85,0.79,-0.92
11317,2025-09-16T15:04:49.306,-1.1,0.79,-0.92
11318,2025-09-16T15:04:49.316,-1.16,0.79,-0.85
11319,2025-09-16T15:04:49.325,-1.04,0.79,-0.73
11320,2025-09-16T15:04:49.335,-0.79,0.79,-0.49
11321,2025-09-16T15:04:49.345,-0.12,0.73,-0.24
11322,2025-09-16T15:04:49.355,0.12,0.79,0.06
11323,2025-09-16T15:04:49.365,0.49,0.73,0.24
11324,2025-09-16T15:04:49.375,0.61,0.79,0.43
11325,2025-09-16T15:04:49.384,0.49,0.79,0.49
11326,2025-09-16T15:04:49.394,0.55,0.79,0.43
11327,2025-09-16T15:04:49.404,0.67,0.73,0.55
11328,2025-09-16T15:04:49.414,0.92,0.73,0.55
11329,2025-09-16T15:04:49.424,0.79,0.67,0.55
11330,2025-09-16T15:04:49.433,0.98,0.73,0.49
11331,2025-09-16T15:04:49.443,0.61,0.67,0.49
11332,2025-09-16T15:04:49.453,0.61,0.67,0.37
11333,2025-09-16T15:04:49.462,-0.06,0.73,0.12
11334,2025-09-16T15:04:49.473,-0.18,0.85,-0.18
11335,2025-09-16T15:04:49.482,-0.67,0.85,-0.43
11336,2025-09-16T15:04:49.492,-0.61,0.92,-0.67
11337,2025-09-16T15:04:49.502,-0.79,0.98,-0.92
11338,2025-09-16T15:04:49.512,-1.34,0.98,-1.16
11339,2025-09-16T15:04:49.520,-1.71,1.04,-1.34
11340,2025-09-16T15:04:49.531,-1.89,0.98,-1.46
11341,2025-09-16T15:04:49.541,-1.77,0.98,-1.4
11342,2025-09-16T15:04:49.550,-1.28,0.92,-1.1
11343,2025-09-16T15:04:49.561,-0.98,0.85,-0.73
11344,2025-09-16T15:04:49.571,-0.61,0.73,-0.37
11345,2025-09-16T15:04:49.581,-0.12,0.73,-0.06
11346,2025-09-16T15:04:49.590,0.18,0.73,0.12
11347,2025-09-16T15:04:49.600,0.55,0.67,0.31
11348,2025-09-16T15:04:49.609,1.22,0.61,0.49
11349,2025-09-16T15:04:49.620,1.1,0.61,0.37
11350,2025-09-16T15:04:49.630,0.31,0.73,0.12
11351,2025-09-16T15:04:49.639,-0.18,0.73,-0.18
11352,2025-09-16T15:04:49.649,-0.37,0.79,-0.31
11353,2025-09-16T15:04:49.659,-0.55,0.79,-0.37
11354,2025-09-16T15:04:49.669,-0.92,0.85,-0.49
11355,2025-09-16T15:04:49.678,-0.85,0.79,-0.43
11356,2025-09-16T15:04:49.688,-0.49,0.79,-0.37
11357,2025-09-16T15:04:49.698,-0.06,0.73,-0.31
11358,2025-09-16T15:04:49.708,0.31,0.61,-0.18
11359,2025-09-16T15:04:49.717,0.55,0.61,0.0
11360,2025-09-16T15:04:49.727,0.49,0.61,0.06
11361,2025-09-16T15:04:49.737,0.37,0.67,0.06
11362,2025-09-16T15:04:49.747,0.12,0.67,0.12
11363,2025-09-16T15:04:49.756,0.0,0.67,0.12
11364,2025-09-16T15:04:49.766,0.31,0.73,0.31
11365,2025-09-16T15:04:49.776,0.73,0.67,0.43
11366,2025-09-16T15:04:49.786,0.49,0.67,0.37
11367,2025-09-16T15:04:49.796,0.31,0.67,0.12
11368,2025-09-16T15:04:49.805,0.24,0.67,0.06
11369,2025-09-16T15:04:49.815,0.67,0.67,0.06
11370,2025-09-16T15:04:49.825,-0.06,0.73,-0.06
11371,2025-09-16T15:04:49.835,-0.49,0.79,-0.43
11372,2025-09-16T15:04:49.845,-0.92,0.79,-0.55
11373,2025-09-16T15:04:49.854,-0.37,0.79,-0.55
11374,2025-09-16T15:04:49.864,-0.49,0.85,-0.49
11375,2025-09-16T15:04:49.874,-0.43,0.85,-0.55
11376,2025-09-16T15:04:49.883,-0.49,0.85,-0.49
11377,2025-09-16T15:04:49.893,-0.37,0.85,-0.43
11378,2025-09-16T15:04:49.903,-0.43,0.79,-0.37
11379,2025-09-16T15:04:49.913,-0.43,0.85,-0.31
11380,2025-09-16T15:04:49.923,-0.18,0.79,-0.12
11381,2025-09-16T15:04:49.933,0.18,0.79,0.06
11382,2025-09-16T15:04:49.942,0.43,0.73,0.12
11383,2025-09-16T15:04:49.952,0.31,0.73,0.12
11384,2025-09-16T15:04:49.961,0.31,0.73,0.12
11385,2025-09-16T15:04:49.971,0.24,0.73,0.12
11386,2025-09-16T15:04:49.981,0.31,0.73,-0.06
11387,2025-09-16T15:04:49.992,-0.24,0.79,-0.31
11388,2025-09-16T15:04:50.001,-0.73,0.85,-0.55
11389,2025-09-16T15:04:50.011,-0.92,0.85,-0.73
11390,2025-09-16T15:04:50.020,-0.92,0.85,-0.92
11391,2025-09-16T15:04:50.030,-1.16,0.85,-1.16
11392,2025-09-16T15:04:50.040,-1.53,0.98,-1.28
11393,2025-09-16T15:04:50.050,-1.59,0.92,-1.22
11394,2025-09-16T15:04:50.060,-1.28,0.85,-1.1
11395,2025-09-16T15:04:50.070,-0.98,0.85,-0.92
11396,2025-09-16T15:04:50.082,-0.92,0.85,-0.67
11397,2025-09-16T15:04:50.089,-0.43,0.79,-0.37
11398,2025-09-16T15:04:50.099,0.24,0.73,0.0
11399,2025-09-16T15:04:50.109,0.37,0.73,0.31
11400,2025-09-16T15:04:50.118,0.61,0.73,0.49
11401,2025-09-16T15:04:50.128,0.73,0.67,0.61
11402,2025-09-16T15:04:50.138,1.04,0.67,0.61
11403,2025-09-16T15:04:50.148,0.73,0.67,0.61
11404,2025-09-16T15:04:50.158,0.73,0.67,0.49
11405,2025-09-16T15:04:50.167,0.73,0.67,0.55
11406,2025-09-16T15:04:50.177,0.92,0.67,0.43
11407,2025-09-16T15:04:50.187,0.43,0.67,0.31
11408,2025-09-16T15:04:50.198,0.12,0.73,0.06
11409,2025-09-16T15:04:50.206,0.18,0.73,0.12
11410,2025-09-16T15:04:50.216,0.18,0.79,0.06
11411,2025-09-16T15:04:50.226,0.0,0.79,-0.06
11412,2025-09-16T15:04:50.236,-0.37,0.79,-0.18
11413,2025-09-16T15:04:50.246,-0.31,0.79,-0.18
11414,2025-09-16T15:04:50.256,0.12,0.79,-0.06
11415,2025-09-16T15:04:50.265,0.12,0.79,-0.06
11416,2025-09-16T15:04:50.275,-0.12,0.79,-0.12
11417,2025-09-16T15:04:50.285,-0.06,0.73,-0.12
11418,2025-09-16T15:04:50.295,0.06,0.73,-0.12
11419,2025-09-16T15:04:50.304,-0.06,0.73,-0.24
11420,2025-09-16T15:04:50.314,-0.31,0.73,-0.37
11421,2025-09-16T15:04:50.324,-0.49,0.73,-0.49
11422,2025-09-16T15:04:50.334,-0.55,0.79,-0.61
11423,2025-09-16T15:04:50.344,-0.85,0.85,-0.79
11424,2025-09-16T15:04:50.353,-1.22,0.92,-0.98
11425,2025-09-16T15:04:50.364,-1.28,0.92,-1.04
11426,2025-09-16T15:04:50.374,-1.1,0.85,-0.92
11427,2025-09-16T15:04:50.383,-0.79,0.85,-0.92
11428,2025-09-16T15:04:50.393,-1.22,0.85,-0.92
11429,2025-09-16T15:04:50.403,-1.04,0.85,-0.67
11430,2025-09-16T15:04:50.413,0.12,0.73,-0.43
11431,2025-09-16T15:04:50.422,0.0,0.73,-0.12
11432,2025-09-16T15:04:50.432,0.31,0.73,0.0
11433,2025-09-16T15:04:50.442,0.49,0.67,0.24
11434,2025-09-16T15:04:50.452,0.55,0.67,0.37
11435,2025-09-16T15:04:50.461,0.61,0.67,0.49
11436,2025-09-16T15:04:50.471,0.43,0.73,0.43
11437,2025-09-16T15:04:50.480,0.49,0.73,0.37
11438,2025-09-16T15:04:50.490,0.67,0.73,0.31
11439,2025-09-16T15:04:50.500,0.73,0.67,0.18
11440,2025-09-16T15:04:50.510,0.37,0.73,0.06
11441,2025-09-16T15:04:50.520,0.18,0.73,-0.06
11442,2025-09-16T15:04:50.529,0.0,0.79,-0.12
11443,2025-09-16T15:04:50.539,-0.12,0.79,-0.18
11444,2025-09-16T15:04:50.549,-0.37,0.79,-0.24
11445,2025-09-16T15:04:50.559,-0.61,0.79,-0.31
11446,2025-09-16T15:04:50.569,-0.31,0.79,-0.24
11447,2025-09-16T15:04:50.578,0.12,0.79,-0.18
11448,2025-09-16T15:04:50.590,0.12,0.79,-0.24
11449,2025-09-16T15:04:50.598,-0.24,0.79,-0.37
11450,2025-09-16T15:04:50.608,-0.24,0.79,-0.37
11451,2025-09-16T15:04:50.617,-0.18,0.79,-0.43
11452,2025-09-16T15:04:50.628,-0.67,0.79,-0.49
11453,2025-09-16T15:04:50.660,-0.98,0.79,-0.61
11454,2025-09-16T15:04:50.668,-0.85,0.85,-0.61
11455,2025-09-16T15:04:50.669,-0.49,0.85,-0.49
11456,2025-09-16T15:04:50.669,-0.43,0.79,-0.43
11457,2025-09-16T15:04:50.678,-0.31,0.79,-0.37
11458,2025-09-16T15:04:50.687,-0.06,0.79,-0.18
11459,2025-09-16T15:04:50.697,0.18,0.73,-0.12
11460,2025-09-16T15:04:50.706,-0.18,0.73,-0.24
11461,2025-09-16T15:04:50.716,-0.43,0.79,-0.37
11462,2025-09-16T15:04:50.726,-0.24,0.79,-0.24
11463,2025-09-16T15:04:50.735,-0.06,0.73,-0.24
11464,2025-09-16T15:04:50.746,-0.37,0.73,-0.18
11465,2025-09-16T15:04:50.755,-0.18,0.73,-0.18
11466,2025-09-16T15:04:50.765,0.0,0.73,-0.18
11467,2025-09-16T15:04:50.774,-0.18,0.73,-0.06
11468,2025-09-16T15:04:50.784,-0.12,0.73,-0.18
11469,2025-09-16T15:04:50.794,-0.18,0.73,-0.24
11470,2025-09-16T15:04:50.804,-0.18,0.79,-0.31
11471,2025-09-16T15:04:50.813,-0.12,0.79,-0.18
11472,2025-09-16T15:04:50.823,0.49,0.73,0.0
11473,2025-09-16T15:04:50.833,0.12,0.73,0.24
11474,2025-09-16T15:04:50.843,0.92,0.73,0.37
11475,2025-09-16T15:04:50.852,1.04,0.67,0.49
11476,2025-09-16T15:04:50.863,0.18,0.73,0.67
11477,2025-09-16T15:04:50.872,1.1,0.67,0.79
11478,2025-09-16T15:04:50.882,1.59,0.61,0.92
11479,2025-09-16T15:04:50.892,1.34,0.61,0.73
11480,2025-09-16T15:04:50.902,0.49,0.67,0.49
11481,2025-09-16T15:04:50.912,0.85,0.67,0.24
11482,2025-09-16T15:04:50.921,0.55,0.73,-0.06
11483,2025-09-16T15:04:50.931,-0.37,0.79,-0.55
11484,2025-09-16T15:04:50.941,-1.16,0.85,-0.92
11485,2025-09-16T15:04:50.951,-1.71,0.92,-1.22
11486,2025-09-16T15:04:50.961,-1.89,0.98,-1.4
11487,2025-09-16T15:04:50.971,-2.2,0.98,-1.4
11488,2025-09-16T15:04:50.981,-1.65,0.92,-1.16
11489,2025-09-16T15:04:50.990,-0.92,0.92,-0.85
11490,2025-09-16T15:04:51.000,-0.31,0.79,-0.49
11491,2025-09-16T15:04:51.011,0.06,0.79,-0.06
11492,2025-09-16T15:04:51.020,0.49,0.73,0.24
11493,2025-09-16T15:04:51.029,0.73,0.67,0.49
11494,2025-09-16T15:04:51.038,0.55,0.67,0.67
11495,2025-09-16T15:04:51.048,0.98,0.73,0.73
11496,2025-09-16T15:04:51.059,1.1,0.67,0.92
11497,2025-09-16T15:04:51.068,1.34,0.67,0.85
11498,2025-09-16T15:04:51.078,1.1,0.67,0.67
11499,2025-09-16T15:04:51.088,0.85,0.73,0.49
