sample,timestamp,gyro_x,gyro_y,gyro_z
14000,2025-09-16T15:05:15.573,0.06,0.79,-0.31
14001,2025-09-16T15:05:15.582,-0.37,0.79,-0.31
14002,2025-09-16T15:05:15.592,-0.31,0.79,-0.31
14003,2025-09-16T15:05:15.602,0.06,0.79,-0.24
14004,2025-09-16T15:05:15.612,-0.31,0.79,-0.37
14005,2025-09-16T15:05:15.622,-0.49,0.79,-0.37
14006,2025-09-16T15:05:15.631,0.06,0.73,-0.37
14007,2025-09-16T15:05:15.641,-0.55,0.79,-0.49
14008,2025-09-16T15:05:15.651,-0.79,0.85,-0.43
14009,2025-09-16T15:05:15.661,0.24,0.73,-0.43
14010,2025-09-16T15:05:15.670,-0.79,0.79,-0.43
14011,2025-09-16T15:05:15.680,0.06,0.73,-0.37
14012,2025-09-16T15:05:15.690,-0.12,0.73,-0.31
14013,2025-09-16T15:05:15.700,-0.31,0.79,-0.43
14014,2025-09-16T15:05:15.709,-0.37,0.79,-0.37
14015,2025-09-16T15:05:15.720,-0.43,0.85,-0.37
14016,2025-09-16T15:05:15.729,-0.55,0.85,-0.37
14017,2025-09-16T15:05:15.739,-0.31,0.79,-0.43
14018,2025-09-16T15:05:15.749,-0.49,0.79,-0.55
14019,2025-09-16T15:05:15.759,-0.61,0.79,-0.49
14020,2025-09-16T15:05:15.769,-0.18,0.73,-0.49
14021,2025-09-16T15:05:15.778,-0.73,0.79,-0.43
14022,2025-09-16T15:05:15.788,-0.12,0.73,-0.37
14023,2025-09-16T15:05:15.798,-0.49,0.79,-0.31
14024,2025-09-16T15:05:15.808,-0.24,0.73,-0.31
14025,2025-09-16T15:05:15.817,-0.06,0.73,-0.31
14026,2025-09-16T15:05:15.827,-0.31,0.73,-0.37
14027,2025-09-16T15:05:15.837,-0.37,0.79,-0.37
14028,2025-09-16T15:05:15.847,-0.31,0.73,-0.37
14029,2025-09-16T15:05:15.857,-0.49,0.79,-0.37
14030,2025-09-16T15:05:15.866,-0.43,0.79,-0.43
14031,2025-09-16T15:05:15.876,-0.55,0.79,-0.37
14032,2025-09-16T15:05:15.886,-0.37,0.79,-0.43
14033,2025-09-16T15:05:15.896,-0.37,0.85,-0.37
14034,2025-09-16T15:05:15.905,-0.24,0.79,-0.37
14035,2025-09-16T15:05:15.915,0.12,0.73,-0.31
14036,2025-09-16T15:05:15.925,-0.73,0.85,-0.55
14037,2025-09-16T15:05:15.935,-1.16,0.92,-0.49
14038,2025-09-16T15:05:15.945,0.79,0.67,-0.31
14039,2025-09-16T15:05:15.954,-1.46,0.92,-0.49
14040,2025-09-16T15:05:15.964,-0.12,0.79,-0.37
14041,2025-09-16T15:05:15.974,0.12,0.73,-0.37
14042,2025-09-16T15:05:15.984,-0.92,0.85,-0.43
14043,2025-09-16T15:05:15.993,-0.06,0.79,-0.31
14044,2025-09-16T15:05:16.003,-0.18,0.79,-0.43
14045,2025-09-16T15:05:16.014,-0.67,0.85,-0.43
14046,2025-09-16T15:05:16.023,-0.31,0.85,-0.37
14047,2025-09-16T15:05:16.033,-0.61,0.85,-0.37
14048,2025-09-16T15:05:16.043,-0.37,0.79,-0.37
14049,2025-09-16T15:05:16.052,-0.24,0.79,-0.37
14050,2025-09-16T15:05:16.062,-0.24,0.73,-0.43
14051,2025-09-16T15:05:16.072,-0.37,0.73,-0.37
14052,2025-09-16T15:05:16.082,-0.06,0.73,-0.37
14053,2025-09-16T15:05:16.091,-0.06,0.79,-0.37
14054,2025-09-16T15:05:16.101,-0.49,0.85,-0.49
14055,2025-09-16T15:05:16.111,-0.43,0.85,-0.43
14056,2025-09-16T15:05:16.121,-0.37,0.85,-0.43
14057,2025-09-16T15:05:16.130,-0.67,0.85,-0.49
14058,2025-09-16T15:05:16.140,-0.43,0.79,-0.43
14059,2025-09-16T15:05:16.150,-0.18,0.73,-0.43
14060,2025-09-16T15:05:16.160,-0.37,0.79,-0.43
14061,2025-09-16T15:05:16.169,-0.18,0.79,-0.43
14062,2025-09-16T15:05:16.179,-0.12,0.79,-0.37
14063,2025-09-16T15:05:16.189,-0.55,0.85,-0.43
14064,2025-09-16T15:05:16.200,-0.24,0.79,-0.24
14065,2025-09-16T15:05:16.209,0.24,0.67,-0.24
14066,2025-09-16T15:05:16.218,-0.98,0.73,-0.37
14067,2025-09-16T15:05:16.228,-0.43,0.79,-0.43
14068,2025-09-16T15:05:16.238,-0.18,0.79,-0.24
14069,2025-09-16T15:05:16.248,0.18,0.79,-0.31
14070,2025-09-16T15:05:16.258,-0.37,0.85,-0.37
14071,2025-09-16T15:05:16.268,-0.24,0.85,-0.43
14072,2025-09-16T15:05:16.277,-0.24,0.79,-0.49
14073,2025-09-16T15:05:16.287,-0.67,0.79,-0.55
14074,2025-09-16T15:05:16.297,-0.61,0.73,-0.55
14075,2025-09-16T15:05:16.306,-0.73,0.67,-0.55
14076,2025-09-16T15:05:16.316,-0.67,0.67,-0.49
14077,2025-09-16T15:05:16.326,-0.49,0.73,-0.49
14078,2025-09-16T15:05:16.336,-0.06,0.73,-0.37
14079,2025-09-16T15:05:16.346,0.06,0.79,-0.31
14080,2025-09-16T15:05:16.356,0.18,0.79,-0.24
14081,2025-09-16T15:05:16.365,0.24,0.79,-0.18
14082,2025-09-16T15:05:16.375,-0.24,0.85,-0.24
14083,2025-09-16T15:05:16.386,-0.43,0.85,-0.24
14084,2025-09-16T15:05:16.395,-0.49,0.79,-0.24
14085,2025-09-16T15:05:16.405,-0.79,0.79,-0.37
14086,2025-09-16T15:05:16.415,-0.67,0.79,-0.43
14087,2025-09-16T15:05:16.425,-0.31,0.73,-0.43
14088,2025-09-16T15:05:16.434,-0.24,0.79,-0.49
14089,2025-09-16T15:05:16.444,-0.18,0.79,-0.49
14090,2025-09-16T15:05:16.454,-0.12,0.79,-0.49
14091,2025-09-16T15:05:16.464,-0.37,0.79,-0.55
14092,2025-09-16T15:05:16.474,-0.49,0.79,-0.55
14093,2025-09-16T15:05:16.483,-0.55,0.85,-0.49
14094,2025-09-16T15:05:16.493,-0.49,0.85,-0.43
14095,2025-09-16T15:05:16.503,-0.55,0.79,-0.43
14096,2025-09-16T15:05:16.513,-0.37,0.79,-0.37
14097,2025-09-16T15:05:16.522,-0.31,0.79,-0.37
14098,2025-09-16T15:05:16.532,-0.24,0.73,-0.37
14099,2025-09-16T15:05:16.542,-0.24,0.73,-0.31
14100,2025-09-16T15:05:16.552,-0.24,0.79,-0.24
14101,2025-09-16T15:05:16.561,-0.31,0.79,-0.24
14102,2025-09-16T15:05:16.571,-0.37,0.79,-0.31
14103,2025-09-16T15:05:16.582,-0.31,0.79,-0.37
14104,2025-09-16T15:05:16.591,-0.37,0.79,-0.37
14105,2025-09-16T15:05:16.601,-0.37,0.79,-0.37
14106,2025-09-16T15:05:16.611,-0.31,0.79,-0.43
14107,2025-09-16T15:05:16.620,-0.31,0.79,-0.43
14108,2025-09-16T15:05:16.630,-0.49,0.79,-0.43
14109,2025-09-16T15:05:16.640,-0.37,0.79,-0.49
14110,2025-09-16T15:05:16.650,-0.43,0.79,-0.49
14111,2025-09-16T15:05:16.659,-0.43,0.85,-0.49
14112,2025-09-16T15:05:16.669,-0.37,0.79,-0.43
14113,2025-09-16T15:05:16.679,-0.37,0.79,-0.43
14114,2025-09-16T15:05:16.689,-0.43,0.79,-0.43
14115,2025-09-16T15:05:16.698,-0.31,0.79,-0.37
14116,2025-09-16T15:05:16.708,-0.24,0.79,-0.31
14117,2025-09-16T15:05:16.718,-0.18,0.79,-0.31
14118,2025-09-16T15:05:16.728,-0.37,0.79,-0.31
14119,2025-09-16T15:05:16.737,-0.24,0.79,-0.31
14120,2025-09-16T15:05:16.747,-0.31,0.79,-0.24
14121,2025-09-16T15:05:16.757,-0.31,0.79,-0.31
14122,2025-09-16T15:05:16.767,-0.31,0.79,-0.31
14123,2025-09-16T15:05:16.776,-0.37,0.79,-0.37
14124,2025-09-16T15:05:16.786,-0.37,0.79,-0.43
14125,2025-09-16T15:05:16.797,-0.43,0.79,-0.37
14126,2025-09-16T15:05:16.807,-0.37,0.79,-0.49
14127,2025-09-16T15:05:16.816,-0.49,0.79,-0.49
14128,2025-09-16T15:05:16.826,-0.43,0.85,-0.49
14129,2025-09-16T15:05:16.836,-0.37,0.85,-0.43
14130,2025-09-16T15:05:16.846,-0.37,0.85,-0.43
14131,2025-09-16T15:05:16.856,-0.43,0.85,-0.43
14132,2025-09-16T15:05:16.865,-0.31,0.79,-0.43
14133,2025-09-16T15:05:16.875,-0.37,0.85,-0.43
14134,2025-09-16T15:05:16.884,-0.31,0.85,-0.37
14135,2025-09-16T15:05:16.894,-0.37,0.85,-0.37
14136,2025-09-16T15:05:16.904,-0.24,0.79,-0.37
14137,2025-09-16T15:05:16.914,-0.31,0.79,-0.37
14138,2025-09-16T15:05:16.923,-0.31,0.79,-0.31
14139,2025-09-16T15:05:16.933,-0.31,0.79,-0.37
14140,2025-09-16T15:05:16.943,-0.37,0.79,-0.37
14141,2025-09-16T15:05:16.953,-0.49,0.79,-0.37
14142,2025-09-16T15:05:16.963,-0.37,0.79,-0.37
14143,2025-09-16T15:05:16.972,-0.43,0.79,-0.43
14144,2025-09-16T15:05:16.982,-0.37,0.79,-0.37
14145,2025-09-16T15:05:16.992,-0.37,0.79,-0.43
14146,2025-09-16T15:05:17.002,-0.31,0.79,-0.37
14147,2025-09-16T15:05:17.012,-0.37,0.79,-0.37
14148,2025-09-16T15:05:17.021,-0.24,0.79,-0.43
14149,2025-09-16T15:05:17.031,-0.43,0.85,-0.43
14150,2025-09-16T15:05:17.041,-0.31,0.85,-0.43
14151,2025-09-16T15:05:17.051,-0.37,0.79,-0.43
14152,2025-09-16T15:05:17.061,-0.37,0.79,-0.43
14153,2025-09-16T15:05:17.071,-0.43,0.85,-0.37
14154,2025-09-16T15:05:17.080,-0.31,0.79,-0.43
14155,2025-09-16T15:05:17.090,-0.37,0.79,-0.43
14156,2025-09-16T15:05:17.099,-0.31,0.79,-0.43
14157,2025-09-16T15:05:17.109,-0.37,0.79,-0.37
14158,2025-09-16T15:05:17.119,-0.31,0.79,-0.37
14159,2025-09-16T15:05:17.129,-0.37,0.79,-0.37
14160,2025-09-16T15:05:17.139,-0.31,0.79,-0.31
14161,2025-09-16T15:05:17.149,-0.31,0.79,-0.31
14162,2025-09-16T15:05:17.158,-0.31,0.85,-0.37
14163,2025-09-16T15:05:17.168,-0.37,0.85,-0.37
14164,2025-09-16T15:05:17.178,-0.31,0.85,-0.37
14165,2025-09-16T15:05:17.188,-0.37,0.79,-0.37
14166,2025-09-16T15:05:17.198,-0.37,0.79,-0.37
14167,2025-09-16T15:05:17.208,-0.37,0.79,-0.43
14168,2025-09-16T15:05:17.218,-0.37,0.79,-0.43
14169,2025-09-16T15:05:17.227,-0.49,0.79,-0.43
14170,2025-09-16T15:05:17.237,-0.49,0.79,-0.49
14171,2025-09-16T15:05:17.247,-0.43,0.79,-0.43
14172,2025-09-16T15:05:17.257,-0.43,0.79,-0.49
14173,2025-09-16T15:05:17.266,-0.37,0.85,-0.49
14174,2025-09-16T15:05:17.276,-0.24,0.79,-0.37
14175,2025-09-16T15:05:17.285,-0.31,0.79,-0.37
14176,2025-09-16T15:05:17.295,-0.31,0.79,-0.37
14177,2025-09-16T15:05:17.305,-0.31,0.79,-0.37
14178,2025-09-16T15:05:17.315,-0.31,0.85,-0.37
14179,2025-09-16T15:05:17.324,-0.31,0.85,-0.31
14180,2025-09-16T15:05:17.334,-0.37,0.79,-0.37
14181,2025-09-16T15:05:17.344,-0.37,0.79,-0.37
14182,2025-09-16T15:05:17.354,-0.31,0.79,-0.37
14183,2025-09-16T15:05:17.365,-0.31,0.73,-0.37
14184,2025-09-16T15:05:17.374,-0.37,0.79,-0.43
14185,2025-09-16T15:05:17.384,-0.43,0.79,-0.43
14186,2025-09-16T15:05:17.394,-0.37,0.73,-0.43
14187,2025-09-16T15:05:17.404,-0.37,0.79,-0.43
14188,2025-09-16T15:05:17.414,-0.37,0.79,-0.43
14189,2025-09-16T15:05:17.423,-0.37,0.79,-0.43
14190,2025-09-16T15:05:17.433,-0.43,0.79,-0.43
14191,2025-09-16T15:05:17.443,-0.31,0.79,-0.37
14192,2025-09-16T15:05:17.453,-0.37,0.79,-0.37
14193,2025-09-16T15:05:17.463,-0.31,0.79,-0.37
14194,2025-09-16T15:05:17.472,-0.31,0.79,-0.31
14195,2025-09-16T15:05:17.482,-0.24,0.79,-0.31
14196,2025-09-16T15:05:17.492,-0.31,0.79,-0.31
14197,2025-09-16T15:05:17.502,-0.31,0.79,-0.37
14198,2025-09-16T15:05:17.511,-0.31,0.79,-0.37
14199,2025-09-16T15:05:17.521,-0.31,0.79,-0.37
14200,2025-09-16T15:05:17.531,-0.31,0.79,-0.43
14201,2025-09-16T15:05:17.541,-0.37,0.79,-0.43
14202,2025-09-16T15:05:17.551,-0.37,0.79,-0.43
14203,2025-09-16T15:05:17.560,-0.37,0.79,-0.43
14204,2025-09-16T15:05:17.570,-0.49,0.79,-0.43
14205,2025-09-16T15:05:17.580,-0.43,0.85,-0.43
14206,2025-09-16T15:05:17.590,-0.43,0.79,-0.43
14207,2025-09-16T15:05:17.599,-0.37,0.79,-0.37
14208,2025-09-16T15:05:17.609,-0.31,0.79,-0.37
14209,2025-09-16T15:05:17.619,-0.31,0.79,-0.37
14210,2025-09-16T15:05:17.629,-0.31,0.85,-0.43
14211,2025-09-16T15:05:17.639,-0.31,0.79,-0.37
14212,2025-09-16T15:05:17.648,-0.37,0.79,-0.37
14213,2025-09-16T15:05:17.658,-0.37,0.79,-0.43
14214,2025-09-16T15:05:17.668,-0.37,0.79,-0.37
14215,2025-09-16T15:05:17.678,-0.31,0.79,-0.43
14216,2025-09-16T15:05:17.687,-0.37,0.79,-0.43
14217,2025-09-16T15:05:17.697,-0.43,0.79,-0.37
14218,2025-09-16T15:05:17.707,-0.43,0.79,-0.43
14219,2025-09-16T15:05:17.717,-0.31,0.79,-0.43
14220,2025-09-16T15:05:17.726,-0.37,0.79,-0.43
14221,2025-09-16T15:05:17.736,-0.31,0.79,-0.43
14222,2025-09-16T15:05:17.746,-0.37,0.79,-0.43
14223,2025-09-16T15:05:17.756,-0.31,0.79,-0.37
14224,2025-09-16T15:05:17.766,-0.37,0.79,-0.37
14225,2025-09-16T15:05:17.776,-0.37,0.79,-0.43
14226,2025-09-16T15:05:17.785,-0.37,0.79,-0.37
14227,2025-09-16T15:05:17.795,-0.31,0.79,-0.37
14228,2025-09-16T15:05:17.805,-0.31,0.79,-0.37
14229,2025-09-16T15:05:17.814,-0.37,0.79,-0.43
14230,2025-09-16T15:05:17.825,-0.37,0.79,-0.43
14231,2025-09-16T15:05:17.834,-0.24,0.79,-0.37
14232,2025-09-16T15:05:17.844,-0.37,0.79,-0.37
14233,2025-09-16T15:05:17.854,-0.37,0.79,-0.37
14234,2025-09-16T15:05:17.863,-0.37,0.79,-0.43
14235,2025-09-16T15:05:17.873,-0.31,0.79,-0.37
14236,2025-09-16T15:05:17.883,-0.37,0.79,-0.37
14237,2025-09-16T15:05:17.893,-0.37,0.79,-0.43
14238,2025-09-16T15:05:17.903,-0.43,0.79,-0.37
14239,2025-09-16T15:05:17.913,-0.31,0.79,-0.43
14240,2025-09-16T15:05:17.922,-0.37,0.79,-0.43
14241,2025-09-16T15:05:17.932,-0.37,0.79,-0.37
14242,2025-09-16T15:05:17.942,-0.43,0.79,-0.43
14243,2025-09-16T15:05:17.952,-0.31,0.79,-0.43
14244,2025-09-16T15:05:17.961,-0.31,0.79,-0.43
14245,2025-09-16T15:05:17.972,-0.31,0.79,-0.43
14246,2025-09-16T15:05:17.981,-0.31,0.79,-0.37
14247,2025-09-16T15:05:17.991,-0.31,0.79,-0.43
14248,2025-09-16T15:05:18.001,-0.37,0.79,-0.37
14249,2025-09-16T15:05:18.011,-0.37,0.85,-0.37
14250,2025-09-16T15:05:18.020,-0.43,0.79,-0.37
14251,2025-09-16T15:05:18.030,-0.37,0.79,-0.43
14252,2025-09-16T15:05:18.040,-0.43,0.79,-0.43
14253,2025-09-16T15:05:18.050,-0.37,0.85,-0.43
14254,2025-09-16T15:05:18.059,-0.37,0.79,-0.43
14255,2025-09-16T15:05:18.069,-0.31,0.79,-0.43
14256,2025-09-16T15:05:18.078,-0.37,0.79,-0.43
14257,2025-09-16T15:05:18.088,-0.37,0.85,-0.43
14258,2025-09-16T15:05:18.098,-0.31,0.79,-0.37
14259,2025-09-16T15:05:18.108,-0.31,0.79,-0.43
14260,2025-09-16T15:05:18.118,-0.31,0.79,-0.37
14261,2025-09-16T15:05:18.128,-0.31,0.79,-0.37
14262,2025-09-16T15:05:18.137,-0.43,0.79,-0.43
14263,2025-09-16T15:05:18.147,-0.24,0.79,-0.37
14264,2025-09-16T15:05:18.157,-0.37,0.79,-0.37
14265,2025-09-16T15:05:18.167,-0.31,0.79,-0.37
14266,2025-09-16T15:05:18.177,-0.37,0.79,-0.37
14267,2025-09-16T15:05:18.186,-0.37,0.79,-0.37
14268,2025-09-16T15:05:18.197,-0.37,0.79,-0.37
14269,2025-09-16T15:05:18.206,-0.31,0.79,-0.37
14270,2025-09-16T15:05:18.216,-0.31,0.79,-0.37
14271,2025-09-16T15:05:18.226,-0.31,0.79,-0.37
14272,2025-09-16T15:05:18.236,-0.31,0.79,-0.37
14273,2025-09-16T15:05:18.245,-0.31,0.79,-0.37
14274,2025-09-16T15:05:18.255,-0.37,0.79,-0.43
14275,2025-09-16T15:05:18.265,-0.37,0.79,-0.37
14276,2025-09-16T15:05:18.274,-0.31,0.79,-0.43
14277,2025-09-16T15:05:18.284,-0.43,0.79,-0.43
14278,2025-09-16T15:05:18.294,-0.43,0.79,-0.43
14279,2025-09-16T15:05:18.304,-0.37,0.79,-0.43
14280,2025-09-16T15:05:18.314,-0.37,0.79,-0.43
14281,2025-09-16T15:05:18.324,-0.37,0.79,-0.43
14282,2025-09-16T15:05:18.333,-0.37,0.85,-0.43
14283,2025-09-16T15:05:18.344,-0.37,0.79,-0.43
14284,2025-09-16T15:05:18.353,-0.31,0.79,-0.43
14285,2025-09-16T15:05:18.363,-0.37,0.79,-0.43
14286,2025-09-16T15:05:18.373,-0.37,0.79,-0.43
14287,2025-09-16T15:05:18.382,-0.31,0.79,-0.37
14288,2025-09-16T15:05:18.392,-0.31,0.79,-0.37
14289,2025-09-16T15:05:18.402,-0.37,0.79,-0.37
14290,2025-09-16T15:05:18.412,-0.37,0.79,-0.37
14291,2025-09-16T15:05:18.421,-0.37,0.79,-0.37
14292,2025-09-16T15:05:18.432,-0.37,0.79,-0.43
14293,2025-09-16T15:05:18.441,-0.37,0.79,-0.37
14294,2025-09-16T15:05:18.451,-0.37,0.79,-0.43
14295,2025-09-16T15:05:18.461,-0.37,0.79,-0.43
14296,2025-09-16T15:05:18.470,-0.37,0.79,-0.43
14297,2025-09-16T15:05:18.480,-0.37,0.79,-0.37
14298,2025-09-16T15:05:18.490,-0.37,0.79,-0.43
14299,2025-09-16T15:05:18.500,-0.43,0.79,-0.43
14300,2025-09-16T15:05:18.510,-0.31,0.79,-0.37
14301,2025-09-16T15:05:18.519,-0.37,0.79,-0.37
14302,2025-09-16T15:05:18.529,-0.37,0.79,-0.37
14303,2025-09-16T15:05:18.539,-0.37,0.79,-0.37
14304,2025-09-16T15:05:18.549,-0.24,0.79,-0.37
14305,2025-09-16T15:05:18.559,-0.31,0.79,-0.37
14306,2025-09-16T15:05:18.568,-0.31,0.79,-0.37
14307,2025-09-16T15:05:18.577,-0.31,0.79,-0.37
14308,2025-09-16T15:05:18.589,-0.31,0.79,-0.37
14309,2025-09-16T15:05:18.598,-0.37,0.79,-0.37
14310,2025-09-16T15:05:18.608,-0.31,0.79,-0.37
14311,2025-09-16T15:05:18.617,-0.37,0.79,-0.43
14312,2025-09-16T15:05:18.626,-0.37,0.79,-0.43
14313,2025-09-16T15:05:18.637,-0.37,0.79,-0.43
14314,2025-09-16T15:05:18.647,-0.31,0.79,-0.43
14315,2025-09-16T15:05:18.656,-0.37,0.79,-0.43
14316,2025-09-16T15:05:18.666,-0.24,0.79,-0.43
14317,2025-09-16T15:05:18.676,-0.31,0.79,-0.43
14318,2025-09-16T15:05:18.687,-0.31,0.79,-0.43
14319,2025-09-16T15:05:18.696,-0.37,0.79,-0.43
14320,2025-09-16T15:05:18.706,-0.37,0.79,-0.43
14321,2025-09-16T15:05:18.716,-0.31,0.73,-0.37
14322,2025-09-16T15:05:18.725,-0.31,0.79,-0.37
14323,2025-09-16T15:05:18.735,-0.37,0.79,-0.37
14324,2025-09-16T15:05:18.745,-0.31,0.79,-0.37
14325,2025-09-16T15:05:18.754,-0.31,0.79,-0.37
14326,2025-09-16T15:05:18.764,-0.43,0.85,-0.37
14327,2025-09-16T15:05:18.774,-0.43,0.85,-0.37
14328,2025-09-16T15:05:18.784,-0.43,0.85,-0.37
14329,2025-09-16T15:05:18.794,-0.43,0.85,-0.43
14330,2025-09-16T15:05:18.803,-0.43,0.85,-0.43
14331,2025-09-16T15:05:18.813,-0.37,0.79,-0.43
14332,2025-09-16T15:05:18.823,-0.37,0.79,-0.43
14333,2025-09-16T15:05:18.833,-0.37,0.79,-0.43
14334,2025-09-16T15:05:18.843,-0.37,0.73,-0.43
14335,2025-09-16T15:05:18.853,-0.43,0.79,-0.49
14336,2025-09-16T15:05:18.862,-0.37,0.79,-0.43
14337,2025-09-16T15:05:18.872,-0.31,0.79,-0.37
14338,2025-09-16T15:05:18.882,-0.31,0.85,-0.43
14339,2025-09-16T15:05:18.892,-0.37,0.85,-0.37
14340,2025-09-16T15:05:18.902,-0.24,0.79,-0.37
14341,2025-09-16T15:05:18.911,-0.31,0.85,-0.37
14342,2025-09-16T15:05:18.921,-0.24,0.85,-0.31
14343,2025-09-16T15:05:18.931,-0.37,0.85,-0.37
14344,2025-09-16T15:05:18.941,-0.43,0.79,-0.37
14345,2025-09-16T15:05:18.951,-0.43,0.79,-0.43
14346,2025-09-16T15:05:18.960,-0.43,0.79,-0.43
14347,2025-09-16T15:05:18.970,-0.49,0.85,-0.49
14348,2025-09-16T15:05:18.979,-0.37,0.79,-0.49
14349,2025-09-16T15:05:18.989,-0.37,0.79,-0.43
14350,2025-09-16T15:05:18.999,-0.31,0.73,-0.43
14351,2025-09-16T15:05:19.009,-0.37,0.73,-0.43
14352,2025-09-16T15:05:19.019,-0.31,0.73,-0.43
14353,2025-09-16T15:05:19.029,-0.31,0.73,-0.43
14354,2025-09-16T15:05:19.038,-0.37,0.73,-0.43
14355,2025-09-16T15:05:19.048,-0.43,0.79,-0.43
14356,2025-09-16T15:05:19.058,-0.31,0.79,-0.37
14357,2025-09-16T15:05:19.068,-0.31,0.79,-0.43
14358,2025-09-16T15:05:19.078,-0.31,0.79,-0.37
14359,2025-09-16T15:05:19.087,-0.31,0.73,-0.37
14360,2025-09-16T15:05:19.098,-0.31,0.67,-0.37
14361,2025-09-16T15:05:19.107,-0.18,0.67,-0.31
14362,2025-09-16T15:05:19.117,-0.18,0.67,-0.43
14363,2025-09-16T15:05:19.127,-0.31,0.67,-0.43
14364,2025-09-16T15:05:19.137,-0.37,0.67,-0.49
14365,2025-09-16T15:05:19.147,-0.43,0.73,-0.49
14366,2025-09-16T15:05:19.156,-0.24,0.73,-0.55
14367,2025-09-16T15:05:19.166,-0.49,0.73,-0.67
14368,2025-09-16T15:05:19.176,-0.61,0.85,-0.61
14369,2025-09-16T15:05:19.186,0.31,0.67,-0.55
14370,2025-09-16T15:05:19.195,-0.55,0.79,-0.55
14371,2025-09-16T15:05:19.205,-0.06,0.73,-0.43
14372,2025-09-16T15:05:19.215,-0.24,0.79,-0.31
14373,2025-09-16T15:05:19.224,-0.12,0.79,-0.24
14374,2025-09-16T15:05:19.234,0.0,0.73,-0.12
14375,2025-09-16T15:05:19.244,0.0,0.73,-0.37
14376,2025-09-16T15:05:19.254,-0.67,0.79,-0.37
14377,2025-09-16T15:05:19.263,0.06,0.67,-0.37
14378,2025-09-16T15:05:19.273,-0.67,0.73,-0.37
14379,2025-09-16T15:05:19.283,0.06,0.67,-0.37
14380,2025-09-16T15:05:19.293,-0.49,0.73,-0.31
14381,2025-09-16T15:05:19.303,-0.31,0.67,-0.31
14382,2025-09-16T15:05:19.313,-0.24,0.67,-0.24
14383,2025-09-16T15:05:19.322,-0.55,0.67,-0.12
14384,2025-09-16T15:05:19.332,-0.43,0.61,-0.31
14385,2025-09-16T15:05:19.342,0.79,0.49,0.43
14386,2025-09-16T15:05:19.352,1.83,0.37,-0.43
14387,2025-09-16T15:05:19.361,-4.76,1.22,-0.18
14388,2025-09-16T15:05:19.371,5.68,0.0,0.31
14389,2025-09-16T15:05:19.381,-4.7,1.34,-0.55
14390,2025-09-16T15:05:19.391,-0.73,0.92,-0.61
14391,2025-09-16T15:05:19.400,-0.18,0.92,-0.31
14392,2025-09-16T15:05:19.410,-1.16,1.04,-0.67
14393,2025-09-16T15:05:19.420,-0.18,0.92,-0.55
14394,2025-09-16T15:05:19.430,0.31,0.79,-0.79
14395,2025-09-16T15:05:19.440,-0.92,0.92,-0.61
14396,2025-09-16T15:05:19.449,0.92,0.67,-0.67
14397,2025-09-16T15:05:19.459,-1.1,0.92,-0.73
14398,2025-09-16T15:05:19.469,-0.73,0.85,-0.85
14399,2025-09-16T15:05:19.479,-0.98,0.92,-0.67
14400,2025-09-16T15:05:19.489,-0.37,0.85,-0.67
14401,2025-09-16T15:05:19.502,-1.28,0.98,-0.61
14402,2025-09-16T15:05:19.508,-0.12,0.85,-0.49
14403,2025-09-16T15:05:19.517,-0.12,0.85,-0.37
14404,2025-09-16T15:05:19.529,-0.18,0.85,-0.43
14405,2025-09-16T15:05:19.538,-0.24,0.85,-0.31
14406,2025-09-16T15:05:19.548,0.31,0.73,-0.24
14407,2025-09-16T15:05:19.557,-0.37,0.79,-0.31
14408,2025-09-16T15:05:19.568,-0.73,0.79,-0.31
14409,2025-09-16T15:05:19.577,-0.06,0.67,-0.24
14410,2025-09-16T15:05:19.587,-0.79,0.79,-0.43
14411,2025-09-16T15:05:19.596,-0.37,0.79,-0.37
14412,2025-09-16T15:05:19.606,-0.24,0.79,-0.43
14413,2025-09-16T15:05:19.616,-0.37,0.79,-0.49
14414,2025-09-16T15:05:19.626,-0.12,0.79,-0.49
14415,2025-09-16T15:05:19.636,-0.49,0.85,-0.55
14416,2025-09-16T15:05:19.645,-0.31,0.85,-0.55
14417,2025-09-16T15:05:19.655,-0.73,0.92,-0.61
14418,2025-09-16T15:05:19.665,-0.49,0.85,-0.55
14419,2025-09-16T15:05:19.675,-0.31,0.85,-0.55
14420,2025-09-16T15:05:19.684,-0.67,0.85,-0.55
14421,2025-09-16T15:05:19.694,-0.18,0.79,-0.49
14422,2025-09-16T15:05:19.704,-0.98,0.85,-0.73
14423,2025-09-16T15:05:19.714,-1.83,1.04,0.12
14424,2025-09-16T15:05:19.724,9.28,-0.37,1.59
14425,2025-09-16T15:05:19.734,-7.93,1.95,-2.01
14426,2025-09-16T15:05:19.743,0.0,0.61,0.85
14427,2025-09-16T15:05:19.753,7.08,0.06,0.49
14428,2025-09-16T15:05:19.763,-7.08,1.4,0.0
14429,2025-09-16T15:05:19.773,0.49,0.85,-1.53
14430,2025-09-16T15:05:19.782,-1.53,0.73,0.61
14431,2025-09-16T15:05:19.792,2.81,0.61,-0.73
14432,2025-09-16T15:05:19.802,-2.93,1.1,-0.49
14433,2025-09-16T15:05:19.812,0.24,0.79,-0.98
14434,2025-09-16T15:05:19.821,-0.49,0.85,0.0
14435,2025-09-16T15:05:19.831,1.77,0.61,-0.55
14436,2025-09-16T15:05:19.841,-2.56,1.1,-0.73
14437,2025-09-16T15:05:19.851,-1.53,0.92,-0.49
14438,2025-09-16T15:05:19.861,2.32,0.49,-0.06
14439,2025-09-16T15:05:19.870,-1.59,0.92,-0.67
14440,2025-09-16T15:05:19.881,-1.89,0.98,-0.49
14441,2025-09-16T15:05:19.890,1.89,0.55,-0.06
14442,2025-09-16T15:05:19.900,0.24,0.73,-0.24
14443,2025-09-16T15:05:19.910,-1.83,0.98,-0.55
14444,2025-09-16T15:05:19.920,0.55,0.67,-0.24
14445,2025-09-16T15:05:19.930,0.43,0.73,-0.31
14446,2025-09-16T15:05:19.940,-2.01,0.98,-0.67
14447,2025-09-16T15:05:19.949,-0.67,0.85,-0.43
14448,2025-09-16T15:05:19.959,0.49,0.73,-0.43
14449,2025-09-16T15:05:19.969,-1.4,0.92,-0.55
14450,2025-09-16T15:05:19.979,-0.37,0.79,-0.55
14451,2025-09-16T15:05:19.988,0.37,0.73,-0.37
14452,2025-09-16T15:05:19.998,-0.24,0.79,-0.55
14453,2025-09-16T15:05:20.008,-0.85,0.85,-0.43
14454,2025-09-16T15:05:20.018,0.43,0.67,-0.37
14455,2025-09-16T15:05:20.028,-0.61,0.85,-0.37
14456,2025-09-16T15:05:20.037,-0.79,0.85,-0.43
14457,2025-09-16T15:05:20.047,-0.12,0.73,-0.31
14458,2025-09-16T15:05:20.057,-0.24,0.79,-0.37
14459,2025-09-16T15:05:20.067,-0.67,0.79,-0.37
14460,2025-09-16T15:05:20.076,0.06,0.73,-0.31
14461,2025-09-16T15:05:20.086,-0.12,0.73,-0.31
14462,2025-09-16T15:05:20.096,-0.55,0.79,-0.43
14463,2025-09-16T15:05:20.106,-0.18,0.73,-0.37
14464,2025-09-16T15:05:20.116,-0.18,0.73,-0.37
14465,2025-09-16T15:05:20.125,-0.73,0.79,-0.43
14466,2025-09-16T15:05:20.135,-0.55,0.79,-0.43
14467,2025-09-16T15:05:20.145,-0.24,0.79,-0.43
14468,2025-09-16T15:05:20.155,-0.55,0.85,-0.43
14469,2025-09-16T15:05:20.164,-0.43,0.79,-0.43
14470,2025-09-16T15:05:20.174,-0.12,0.79,-0.37
14471,2025-09-16T15:05:20.184,-0.24,0.79,-0.37
14472,2025-09-16T15:05:20.194,-0.37,0.79,-0.43
14473,2025-09-16T15:05:20.204,-0.18,0.79,-0.37
14474,2025-09-16T15:05:20.213,-0.43,0.79,-0.37
14475,2025-09-16T15:05:20.223,-0.55,0.85,-0.43
14476,2025-09-16T15:05:20.233,-0.31,0.79,-0.37
14477,2025-09-16T15:05:20.243,-0.37,0.79,-0.37
14478,2025-09-16T15:05:20.253,-0.49,0.79,-0.37
14479,2025-09-16T15:05:20.263,-0.18,0.79,-0.37
14480,2025-09-16T15:05:20.271,-0.12,0.79,-0.37
14481,2025-09-16T15:05:20.282,-0.37,0.79,-0.43
14482,2025-09-16T15:05:20.292,-0.43,0.79,-0.43
14483,2025-09-16T15:05:20.302,-0.31,0.79,-0.43
14484,2025-09-16T15:05:20.311,-0.49,0.85,-0.43
14485,2025-09-16T15:05:20.321,-0.49,0.79,-0.43
14486,2025-09-16T15:05:20.331,-0.43,0.79,-0.43
14487,2025-09-16T15:05:20.341,-0.37,0.79,-0.43
14488,2025-09-16T15:05:20.350,-0.31,0.79,-0.37
14489,2025-09-16T15:05:20.360,-0.31,0.79,-0.37
14490,2025-09-16T15:05:20.370,-0.18,0.79,-0.37
14491,2025-09-16T15:05:20.380,-0.31,0.79,-0.37
14492,2025-09-16T15:05:20.390,-0.18,0.79,-0.37
14493,2025-09-16T15:05:20.399,-0.61,0.85,-0.37
14494,2025-09-16T15:05:20.409,-0.37,0.79,-0.37
14495,2025-09-16T15:05:20.419,-0.49,0.79,-0.43
14496,2025-09-16T15:05:20.429,-0.43,0.79,-0.43
14497,2025-09-16T15:05:20.439,-0.24,0.85,-0.37
14498,2025-09-16T15:05:20.448,-0.37,0.85,-0.43
14499,2025-09-16T15:05:20.458,-0.31,0.79,-0.43
