sample,timestamp,gyro_x,gyro_y,gyro_z
43000,2025-09-16T15:09:59.493,-1.71,0.06,-0.43
43001,2025-09-16T15:09:59.503,-0.85,-0.49,-0.67
43002,2025-09-16T15:09:59.512,-0.24,0.61,-0.43
43003,2025-09-16T15:09:59.523,-0.24,0.79,-0.43
43004,2025-09-16T15:09:59.532,-0.12,0.85,-0.37
43005,2025-09-16T15:09:59.542,-0.06,0.85,-0.37
43006,2025-09-16T15:09:59.552,-0.12,0.79,-0.43
43007,2025-09-16T15:09:59.562,-0.12,0.73,-0.37
43008,2025-09-16T15:09:59.572,-0.24,0.73,-0.37
43009,2025-09-16T15:09:59.582,-0.24,0.79,-0.37
43010,2025-09-16T15:09:59.591,-0.31,0.79,-0.43
43011,2025-09-16T15:09:59.601,-0.37,0.79,-0.37
43012,2025-09-16T15:09:59.611,-0.43,0.85,-0.37
43013,2025-09-16T15:09:59.621,-0.55,0.92,-0.37
43014,2025-09-16T15:09:59.631,-0.49,0.85,-0.37
43015,2025-09-16T15:09:59.640,-0.49,0.85,-0.37
43016,2025-09-16T15:09:59.651,-0.49,0.85,-0.37
43017,2025-09-16T15:09:59.660,-0.43,0.79,-0.37
43018,2025-09-16T15:09:59.669,-0.43,0.79,-0.37
43019,2025-09-16T15:09:59.679,-0.37,0.79,-0.43
43020,2025-09-16T15:09:59.689,-0.31,0.73,-0.37
43021,2025-09-16T15:09:59.699,-0.24,0.73,-0.43
43022,2025-09-16T15:09:59.709,-0.18,0.79,-0.37
43023,2025-09-16T15:09:59.718,-0.12,0.79,-0.37
43024,2025-09-16T15:09:59.728,-0.18,0.85,-0.31
43025,2025-09-16T15:09:59.738,-0.18,0.85,-0.31
43026,2025-09-16T15:09:59.748,-0.24,0.85,-0.31
43027,2025-09-16T15:09:59.758,-0.31,0.85,-0.31
43028,2025-09-16T15:09:59.767,-0.31,0.85,-0.31
43029,2025-09-16T15:09:59.777,-0.43,0.85,-0.31
43030,2025-09-16T15:09:59.787,-0.49,0.79,-0.31
43031,2025-09-16T15:09:59.797,-0.49,0.85,-0.31
43032,2025-09-16T15:09:59.806,-0.55,0.79,-0.31
43033,2025-09-16T15:09:59.816,-0.61,0.79,-0.31
43034,2025-09-16T15:09:59.826,-0.61,0.85,-0.31
43035,2025-09-16T15:09:59.836,-0.55,0.85,-0.37
43036,2025-09-16T15:09:59.846,-0.49,0.85,-0.37
43037,2025-09-16T15:09:59.855,-0.37,0.85,-0.37
43038,2025-09-16T15:09:59.865,-0.37,0.79,-0.37
43039,2025-09-16T15:09:59.875,-0.31,0.79,-0.37
43040,2025-09-16T15:09:59.886,-0.31,0.73,-0.31
43041,2025-09-16T15:09:59.895,-0.18,0.79,-0.37
43042,2025-09-16T15:09:59.905,-0.12,0.79,-0.31
43043,2025-09-16T15:09:59.914,-0.12,0.79,-0.18
43044,2025-09-16T15:09:59.924,-0.18,0.67,-0.18
43045,2025-09-16T15:09:59.934,-0.43,0.67,-0.24
43046,2025-09-16T15:09:59.943,-0.55,0.67,-0.37
43047,2025-09-16T15:09:59.953,-0.67,0.67,-0.37
43048,2025-09-16T15:09:59.963,-0.92,0.61,-0.37
43049,2025-09-16T15:09:59.973,-1.1,0.61,-0.37
43050,2025-09-16T15:09:59.983,-1.22,0.55,-0.37
43051,2025-09-16T15:09:59.993,-1.16,0.61,-0.31
43052,2025-09-16T15:10:00.003,-1.16,0.67,-0.31
43053,2025-09-16T15:10:00.013,-1.28,0.67,-0.37
43054,2025-09-16T15:10:00.022,-1.04,0.61,-0.37
43055,2025-09-16T15:10:00.032,-0.98,0.61,-0.37
43056,2025-09-16T15:10:00.042,-0.79,0.55,-0.37
43057,2025-09-16T15:10:00.052,-0.73,0.49,-0.43
43058,2025-09-16T15:10:00.061,-0.55,0.49,-0.43
43059,2025-09-16T15:10:00.071,-0.49,0.49,-0.43
43060,2025-09-16T15:10:00.080,-0.37,0.55,-0.43
43061,2025-09-16T15:10:00.090,-0.37,0.61,-0.37
43062,2025-09-16T15:10:00.101,-0.31,0.67,-0.37
43063,2025-09-16T15:10:00.111,-0.43,0.73,-0.37
43064,2025-09-16T15:10:00.120,-0.37,0.79,-0.31
43065,2025-09-16T15:10:00.130,-0.55,0.92,-0.24
43066,2025-09-16T15:10:00.140,-0.55,0.92,-0.24
43067,2025-09-16T15:10:00.149,-0.55,0.92,-0.24
43068,2025-09-16T15:10:00.159,-0.61,0.85,-0.31
43069,2025-09-16T15:10:00.168,-0.67,0.79,-0.31
43070,2025-09-16T15:10:00.179,-0.73,0.73,-0.37
43071,2025-09-16T15:10:00.189,-0.73,0.67,-0.43
43072,2025-09-16T15:10:00.199,-0.67,0.67,-0.43
43073,2025-09-16T15:10:00.209,-0.49,0.67,-0.49
43074,2025-09-16T15:10:00.218,-0.31,0.73,-0.49
43075,2025-09-16T15:10:00.228,-0.12,0.85,-0.55
43076,2025-09-16T15:10:00.238,0.12,0.85,-0.55
43077,2025-09-16T15:10:00.248,0.24,0.98,-0.55
43078,2025-09-16T15:10:00.257,0.37,1.04,-0.55
43079,2025-09-16T15:10:00.267,-0.18,0.24,-0.67
43080,2025-09-16T15:10:00.276,-2.38,-3.23,-1.65
43081,2025-09-16T15:10:00.286,-3.3,-0.61,-1.1
43082,2025-09-16T15:10:00.296,-2.5,-2.87,-1.77
43083,2025-09-16T15:10:00.306,1.28,-1.59,-1.22
43084,2025-09-16T15:10:00.316,2.56,1.4,-0.37
43085,2025-09-16T15:10:00.325,3.6,3.42,-0.12
43086,2025-09-16T15:10:00.335,4.03,2.81,-0.61
43087,2025-09-16T15:10:00.345,1.1,3.11,-0.49
43088,2025-09-16T15:10:00.355,1.59,3.85,-0.12
43089,2025-09-16T15:10:00.365,-0.67,1.89,0.0
43090,2025-09-16T15:10:00.375,-0.18,1.59,0.06
43091,2025-09-16T15:10:00.385,0.18,2.14,0.12
43092,2025-09-16T15:10:00.394,0.79,1.77,-0.06
43093,2025-09-16T15:10:00.404,0.12,1.04,-0.31
43094,2025-09-16T15:10:00.414,-0.24,0.85,-0.37
43095,2025-09-16T15:10:00.424,-0.37,0.79,-0.43
43096,2025-09-16T15:10:00.433,-0.43,0.73,-0.43
43097,2025-09-16T15:10:00.443,-0.55,0.73,-0.43
43098,2025-09-16T15:10:00.453,-0.43,0.79,-0.37
43099,2025-09-16T15:10:00.463,-0.31,0.85,-0.43
43100,2025-09-16T15:10:00.472,-0.31,0.85,-0.37
43101,2025-09-16T15:10:00.482,-0.24,0.92,-0.37
43102,2025-09-16T15:10:00.492,-0.12,0.85,-0.37
43103,2025-09-16T15:10:00.502,-0.12,0.85,-0.37
43104,2025-09-16T15:10:00.512,-0.12,0.79,-0.31
43105,2025-09-16T15:10:00.522,-0.18,0.79,-0.37
43106,2025-09-16T15:10:00.531,-0.18,0.73,-0.43
43107,2025-09-16T15:10:00.541,-0.18,0.73,-0.43
43108,2025-09-16T15:10:00.551,-0.24,0.73,-0.37
43109,2025-09-16T15:10:00.561,-0.31,0.73,-0.43
43110,2025-09-16T15:10:00.570,-0.43,0.79,-0.37
43111,2025-09-16T15:10:00.580,-0.43,0.85,-0.37
43112,2025-09-16T15:10:00.589,-0.43,0.92,-0.37
43113,2025-09-16T15:10:00.599,-0.37,0.98,-0.37
43114,2025-09-16T15:10:00.609,-0.24,0.98,-0.37
43115,2025-09-16T15:10:00.619,-0.37,0.85,-0.31
43116,2025-09-16T15:10:00.629,-0.24,0.92,-0.31
43117,2025-09-16T15:10:00.639,-0.18,0.85,-0.37
43118,2025-09-16T15:10:00.649,-0.24,0.73,-0.43
43119,2025-09-16T15:10:00.658,-0.18,0.73,-0.37
43120,2025-09-16T15:10:00.672,-0.24,0.79,-0.37
43121,2025-09-16T15:10:00.678,-0.06,0.85,-0.37
43122,2025-09-16T15:10:00.688,-0.06,0.92,-0.31
43123,2025-09-16T15:10:00.698,0.06,0.98,-0.31
43124,2025-09-16T15:10:00.708,0.0,0.98,-0.37
43125,2025-09-16T15:10:00.718,-0.06,0.98,-0.37
43126,2025-09-16T15:10:00.727,-0.12,0.92,-0.37
43127,2025-09-16T15:10:00.737,-0.18,0.92,-0.37
43128,2025-09-16T15:10:00.747,-0.31,0.85,-0.37
43129,2025-09-16T15:10:00.757,-0.37,0.85,-0.37
43130,2025-09-16T15:10:00.767,-0.37,0.85,-0.37
43131,2025-09-16T15:10:00.776,-0.31,0.85,-0.37
43132,2025-09-16T15:10:00.786,-0.31,0.85,-0.37
43133,2025-09-16T15:10:00.796,-0.31,0.85,-0.37
43134,2025-09-16T15:10:00.805,-0.24,0.85,-0.37
43135,2025-09-16T15:10:00.815,-0.24,0.85,-0.43
43136,2025-09-16T15:10:00.825,-0.31,0.85,-0.37
43137,2025-09-16T15:10:00.835,-0.31,0.85,-0.43
43138,2025-09-16T15:10:00.845,-0.24,0.85,-0.37
43139,2025-09-16T15:10:00.855,-0.24,0.85,-0.37
43140,2025-09-16T15:10:00.864,-0.18,0.79,-0.43
43141,2025-09-16T15:10:00.874,-0.18,0.79,-0.37
43142,2025-09-16T15:10:00.883,-0.18,0.79,-0.37
43143,2025-09-16T15:10:00.894,-0.18,0.79,-0.37
43144,2025-09-16T15:10:00.903,-0.31,0.79,-0.43
43145,2025-09-16T15:10:00.913,-0.31,0.79,-0.43
43146,2025-09-16T15:10:00.923,-0.37,0.79,-0.37
43147,2025-09-16T15:10:00.932,-0.37,0.79,-0.43
43148,2025-09-16T15:10:00.942,-0.43,0.85,-0.37
43149,2025-09-16T15:10:00.952,-0.37,0.92,-0.31
43150,2025-09-16T15:10:00.962,-0.37,0.92,-0.37
43151,2025-09-16T15:10:00.972,-0.37,0.92,-0.37
43152,2025-09-16T15:10:00.981,-0.37,0.85,-0.37
43153,2025-09-16T15:10:00.991,-0.37,0.79,-0.43
43154,2025-09-16T15:10:01.001,-0.37,0.85,-0.43
43155,2025-09-16T15:10:01.011,-0.37,0.79,-0.37
43156,2025-09-16T15:10:01.020,-0.31,0.79,-0.43
43157,2025-09-16T15:10:01.030,-0.24,0.73,-0.43
43158,2025-09-16T15:10:01.040,-0.24,0.79,-0.37
43159,2025-09-16T15:10:01.050,-0.24,0.79,-0.43
43160,2025-09-16T15:10:01.060,-0.24,0.79,-0.37
43161,2025-09-16T15:10:01.069,-0.31,0.85,-0.43
43162,2025-09-16T15:10:01.079,-0.31,0.85,-0.43
43163,2025-09-16T15:10:01.089,-0.37,0.85,-0.37
43164,2025-09-16T15:10:01.099,-0.37,0.85,-0.43
43165,2025-09-16T15:10:01.109,-0.37,0.85,-0.43
43166,2025-09-16T15:10:01.118,-0.37,0.85,-0.43
43167,2025-09-16T15:10:01.128,-0.43,0.85,-0.43
43168,2025-09-16T15:10:01.138,-0.43,0.85,-0.43
43169,2025-09-16T15:10:01.148,-0.43,0.79,-0.37
43170,2025-09-16T15:10:01.159,-0.37,0.79,-0.37
43171,2025-09-16T15:10:01.167,-0.31,0.79,-0.43
43172,2025-09-16T15:10:01.177,-0.31,0.79,-0.43
43173,2025-09-16T15:10:01.187,-0.31,0.79,-0.37
43174,2025-09-16T15:10:01.197,-0.24,0.79,-0.37
43175,2025-09-16T15:10:01.207,-0.24,0.79,-0.37
43176,2025-09-16T15:10:01.216,-0.31,0.79,-0.37
43177,2025-09-16T15:10:01.225,-0.31,0.79,-0.37
43178,2025-09-16T15:10:01.237,-0.37,0.85,-0.37
43179,2025-09-16T15:10:01.246,-0.37,0.85,-0.43
43180,2025-09-16T15:10:01.257,-0.43,0.85,-0.37
43181,2025-09-16T15:10:01.266,-0.43,0.85,-0.37
43182,2025-09-16T15:10:01.276,-0.43,0.85,-0.37
43183,2025-09-16T15:10:01.285,-0.43,0.85,-0.43
43184,2025-09-16T15:10:01.295,-0.24,0.92,-0.43
43185,2025-09-16T15:10:01.305,-0.24,0.85,-0.31
43186,2025-09-16T15:10:01.315,-0.43,0.79,-0.43
43187,2025-09-16T15:10:01.325,-0.12,0.79,-0.49
43188,2025-09-16T15:10:01.334,-0.37,0.73,-0.37
43189,2025-09-16T15:10:01.344,-0.12,0.73,-0.37
43190,2025-09-16T15:10:01.354,-0.24,0.79,-0.49
43191,2025-09-16T15:10:01.364,-0.37,0.79,-0.43
43192,2025-09-16T15:10:01.373,-0.37,0.79,-0.37
43193,2025-09-16T15:10:01.383,-0.37,0.85,-0.37
43194,2025-09-16T15:10:01.393,-0.37,0.85,-0.37
43195,2025-09-16T15:10:01.402,-0.43,0.85,-0.37
43196,2025-09-16T15:10:01.412,-0.43,0.85,-0.37
43197,2025-09-16T15:10:01.423,-0.43,0.85,-0.37
43198,2025-09-16T15:10:01.432,-0.37,0.85,-0.37
43199,2025-09-16T15:10:01.442,-0.37,0.79,-0.43
43200,2025-09-16T15:10:01.453,-0.37,0.79,-0.43
43201,2025-09-16T15:10:01.462,-0.31,0.73,-0.43
43202,2025-09-16T15:10:01.470,-0.31,0.73,-0.43
43203,2025-09-16T15:10:01.481,-0.31,0.79,-0.43
43204,2025-09-16T15:10:01.490,-0.31,0.85,-0.43
43205,2025-09-16T15:10:01.500,-0.18,0.85,-0.43
43206,2025-09-16T15:10:01.510,-0.24,0.85,-0.37
43207,2025-09-16T15:10:01.520,-0.31,0.85,-0.37
43208,2025-09-16T15:10:01.529,-0.31,0.85,-0.37
43209,2025-09-16T15:10:01.539,-0.37,0.85,-0.37
43210,2025-09-16T15:10:01.549,-0.37,0.85,-0.37
43211,2025-09-16T15:10:01.559,-0.37,0.79,-0.43
43212,2025-09-16T15:10:01.569,-0.43,0.73,-0.43
43213,2025-09-16T15:10:01.579,-0.49,0.73,-0.43
43214,2025-09-16T15:10:01.589,-0.43,0.79,-0.43
43215,2025-09-16T15:10:01.598,-0.43,0.79,-0.37
43216,2025-09-16T15:10:01.608,-0.43,0.79,-0.37
43217,2025-09-16T15:10:01.618,-0.37,0.79,-0.37
43218,2025-09-16T15:10:01.628,-0.31,0.85,-0.37
43219,2025-09-16T15:10:01.638,-0.31,0.85,-0.37
43220,2025-09-16T15:10:01.648,-0.31,0.92,-0.37
43221,2025-09-16T15:10:01.658,-0.24,0.85,-0.37
43222,2025-09-16T15:10:01.667,-0.24,0.85,-0.37
43223,2025-09-16T15:10:01.676,-0.12,0.85,-0.37
43224,2025-09-16T15:10:01.686,-0.18,0.79,-0.37
43225,2025-09-16T15:10:01.696,-0.31,0.73,-0.37
43226,2025-09-16T15:10:01.706,-0.37,0.73,-0.37
43227,2025-09-16T15:10:01.715,-0.37,0.73,-0.37
43228,2025-09-16T15:10:01.725,-0.37,0.79,-0.37
43229,2025-09-16T15:10:01.735,-0.37,0.85,-0.43
43230,2025-09-16T15:10:01.745,-0.49,0.85,-0.43
43231,2025-09-16T15:10:01.755,-0.49,0.85,-0.43
43232,2025-09-16T15:10:01.764,-0.43,0.85,-0.37
43233,2025-09-16T15:10:01.775,-0.43,0.85,-0.37
43234,2025-09-16T15:10:01.785,-0.43,0.85,-0.37
43235,2025-09-16T15:10:01.794,-0.37,0.85,-0.37
43236,2025-09-16T15:10:01.804,-0.31,0.79,-0.43
43237,2025-09-16T15:10:01.814,-0.31,0.73,-0.43
43238,2025-09-16T15:10:01.824,-0.24,0.73,-0.37
43239,2025-09-16T15:10:01.834,-0.24,0.73,-0.43
43240,2025-09-16T15:10:01.843,-0.31,0.79,-0.43
43241,2025-09-16T15:10:01.853,-0.24,0.79,-0.43
43242,2025-09-16T15:10:01.863,-0.31,0.85,-0.37
43243,2025-09-16T15:10:01.872,-0.31,0.85,-0.37
43244,2025-09-16T15:10:01.882,-0.31,0.85,-0.37
43245,2025-09-16T15:10:01.892,-0.37,0.85,-0.31
43246,2025-09-16T15:10:01.902,-0.37,0.85,-0.37
43247,2025-09-16T15:10:01.911,-0.43,0.79,-0.43
43248,2025-09-16T15:10:01.922,-0.37,0.79,-0.43
43249,2025-09-16T15:10:01.931,-0.24,0.79,-0.31
43250,2025-09-16T15:10:01.942,-0.43,0.79,-0.37
43251,2025-09-16T15:10:01.951,-0.24,0.79,-0.43
43252,2025-09-16T15:10:01.961,-0.31,0.79,-0.37
43253,2025-09-16T15:10:01.971,-0.18,0.85,-0.37
43254,2025-09-16T15:10:01.981,-0.24,0.85,-0.37
43255,2025-09-16T15:10:01.991,-0.24,0.85,-0.37
43256,2025-09-16T15:10:02.001,-0.18,0.85,-0.37
43257,2025-09-16T15:10:02.010,-0.24,0.85,-0.37
43258,2025-09-16T15:10:02.020,-0.18,0.85,-0.37
43259,2025-09-16T15:10:02.030,-0.31,0.79,-0.37
43260,2025-09-16T15:10:02.040,-0.31,0.79,-0.31
43261,2025-09-16T15:10:02.049,-0.37,0.73,-0.37
43262,2025-09-16T15:10:02.059,-0.31,0.79,-0.43
43263,2025-09-16T15:10:02.069,-0.37,0.79,-0.37
43264,2025-09-16T15:10:02.079,-0.37,0.85,-0.43
43265,2025-09-16T15:10:02.088,-0.37,0.85,-0.37
43266,2025-09-16T15:10:02.098,-0.37,0.85,-0.37
43267,2025-09-16T15:10:02.108,-0.37,0.85,-0.37
43268,2025-09-16T15:10:02.118,-0.24,0.92,-0.37
43269,2025-09-16T15:10:02.127,-0.24,0.92,-0.37
43270,2025-09-16T15:10:02.137,-0.24,0.92,-0.37
43271,2025-09-16T15:10:02.147,-0.24,0.85,-0.37
43272,2025-09-16T15:10:02.157,-0.24,0.85,-0.43
43273,2025-09-16T15:10:02.167,-0.24,0.79,-0.37
43274,2025-09-16T15:10:02.177,-0.18,0.73,-0.37
43275,2025-09-16T15:10:02.186,-0.18,0.73,-0.43
43276,2025-09-16T15:10:02.196,-0.31,0.79,-0.43
43277,2025-09-16T15:10:02.206,-0.31,0.73,-0.37
43278,2025-09-16T15:10:02.216,-0.31,0.79,-0.37
43279,2025-09-16T15:10:02.226,-0.37,0.85,-0.43
43280,2025-09-16T15:10:02.235,-0.43,0.85,-0.37
43281,2025-09-16T15:10:02.245,-0.49,0.85,-0.37
43282,2025-09-16T15:10:02.255,-0.49,0.85,-0.37
43283,2025-09-16T15:10:02.265,-0.43,0.85,-0.37
43284,2025-09-16T15:10:02.274,-0.43,0.79,-0.37
43285,2025-09-16T15:10:02.284,-0.37,0.73,-0.43
43286,2025-09-16T15:10:02.294,-0.37,0.73,-0.43
43287,2025-09-16T15:10:02.304,-0.31,0.73,-0.37
43288,2025-09-16T15:10:02.313,-0.24,0.79,-0.37
43289,2025-09-16T15:10:02.323,-0.18,0.79,-0.37
43290,2025-09-16T15:10:02.333,-0.18,0.85,-0.37
43291,2025-09-16T15:10:02.342,-0.18,0.85,-0.37
43292,2025-09-16T15:10:02.352,-0.18,0.85,-0.37
43293,2025-09-16T15:10:02.362,-0.18,0.85,-0.37
43294,2025-09-16T15:10:02.372,-0.24,0.85,-0.37
43295,2025-09-16T15:10:02.382,-0.24,0.85,-0.37
43296,2025-09-16T15:10:02.391,-0.37,0.79,-0.37
43297,2025-09-16T15:10:02.401,-0.37,0.73,-0.43
43298,2025-09-16T15:10:02.411,-0.43,0.73,-0.43
43299,2025-09-16T15:10:02.421,-0.49,0.73,-0.43
43300,2025-09-16T15:10:02.430,-0.55,0.73,-0.43
43301,2025-09-16T15:10:02.440,-0.49,0.73,-0.37
43302,2025-09-16T15:10:02.450,-0.55,0.79,-0.37
43303,2025-09-16T15:10:02.459,-0.43,0.85,-0.37
43304,2025-09-16T15:10:02.469,-0.31,0.85,-0.37
43305,2025-09-16T15:10:02.480,-0.31,0.85,-0.37
43306,2025-09-16T15:10:02.489,-0.24,0.85,-0.43
43307,2025-09-16T15:10:02.499,-0.24,0.79,-0.49
43308,2025-09-16T15:10:02.509,-0.18,0.73,-0.43
43309,2025-09-16T15:10:02.519,-0.18,0.73,-0.43
43310,2025-09-16T15:10:02.529,-0.31,0.73,-0.43
43311,2025-09-16T15:10:02.538,-0.31,0.67,-0.43
43312,2025-09-16T15:10:02.548,-0.43,0.73,-0.43
43313,2025-09-16T15:10:02.558,-0.49,0.79,-0.43
43314,2025-09-16T15:10:02.568,-0.49,0.85,-0.43
43315,2025-09-16T15:10:02.578,-0.55,0.92,-0.43
43316,2025-09-16T15:10:02.587,-0.67,0.92,-0.43
43317,2025-09-16T15:10:02.600,-0.61,0.98,-0.37
43318,2025-09-16T15:10:02.607,-0.55,0.98,-0.37
43319,2025-09-16T15:10:02.616,-0.49,0.92,-0.37
43320,2025-09-16T15:10:02.627,-0.31,0.85,-0.43
43321,2025-09-16T15:10:02.637,-0.24,0.79,-0.43
43322,2025-09-16T15:10:02.646,-0.18,0.73,-0.49
43323,2025-09-16T15:10:02.656,-0.12,0.73,-0.43
43324,2025-09-16T15:10:02.666,0.0,0.73,-0.43
43325,2025-09-16T15:10:02.675,-0.06,0.73,-0.43
43326,2025-09-16T15:10:02.685,-0.06,0.79,-0.43
43327,2025-09-16T15:10:02.695,-0.24,0.85,-0.37
43328,2025-09-16T15:10:02.705,-0.24,0.92,-0.37
43329,2025-09-16T15:10:02.715,-0.37,0.98,-0.37
43330,2025-09-16T15:10:02.724,-0.43,0.92,-0.37
43331,2025-09-16T15:10:02.734,-0.49,0.92,-0.37
43332,2025-09-16T15:10:02.744,-0.61,0.85,-0.43
43333,2025-09-16T15:10:02.754,-0.61,0.79,-0.43
43334,2025-09-16T15:10:02.764,-0.61,0.73,-0.43
43335,2025-09-16T15:10:02.773,-0.61,0.79,-0.43
43336,2025-09-16T15:10:02.783,-0.49,0.73,-0.43
43337,2025-09-16T15:10:02.793,-0.31,0.73,-0.43
43338,2025-09-16T15:10:02.803,-0.24,0.79,-0.43
43339,2025-09-16T15:10:02.812,-0.18,0.79,-0.37
43340,2025-09-16T15:10:02.822,-0.12,0.85,-0.37
43341,2025-09-16T15:10:02.832,-0.06,0.92,-0.37
43342,2025-09-16T15:10:02.842,-0.12,0.92,-0.37
43343,2025-09-16T15:10:02.852,-0.12,0.85,-0.37
43344,2025-09-16T15:10:02.861,-0.18,0.85,-0.37
43345,2025-09-16T15:10:02.871,-0.31,0.85,-0.37
43346,2025-09-16T15:10:02.881,-0.37,0.85,-0.37
43347,2025-09-16T15:10:02.891,-0.37,0.79,-0.31
43348,2025-09-16T15:10:02.900,-0.49,0.79,-0.37
43349,2025-09-16T15:10:02.910,-0.55,0.79,-0.43
43350,2025-09-16T15:10:02.921,-0.55,0.79,-0.37
43351,2025-09-16T15:10:02.930,-0.55,0.79,-0.43
43352,2025-09-16T15:10:02.940,-0.43,0.85,-0.43
43353,2025-09-16T15:10:02.950,-0.43,0.85,-0.43
43354,2025-09-16T15:10:02.960,-0.37,0.85,-0.37
43355,2025-09-16T15:10:02.969,-0.31,0.85,-0.37
43356,2025-09-16T15:10:02.979,-0.24,0.85,-0.37
43357,2025-09-16T15:10:02.988,-0.31,0.85,-0.37
43358,2025-09-16T15:10:02.998,-0.24,0.79,-0.37
43359,2025-09-16T15:10:03.008,-0.24,0.79,-0.31
43360,2025-09-16T15:10:03.018,-0.31,0.85,-0.37
43361,2025-09-16T15:10:03.028,-0.31,0.85,-0.37
43362,2025-09-16T15:10:03.037,-0.24,0.85,-0.37
43363,2025-09-16T15:10:03.047,-0.24,0.85,-0.37
43364,2025-09-16T15:10:03.057,-0.31,0.85,-0.37
43365,2025-09-16T15:10:03.067,-0.43,0.79,-0.37
43366,2025-09-16T15:10:03.077,-0.37,0.79,-0.43
43367,2025-09-16T15:10:03.087,-0.37,0.79,-0.43
43368,2025-09-16T15:10:03.096,-0.37,0.73,-0.37
43369,2025-09-16T15:10:03.106,-0.43,0.73,-0.43
43370,2025-09-16T15:10:03.116,-0.43,0.79,-0.43
43371,2025-09-16T15:10:03.126,-0.37,0.79,-0.43
43372,2025-09-16T15:10:03.135,-0.37,0.79,-0.43
43373,2025-09-16T15:10:03.145,-0.37,0.79,-0.43
43374,2025-09-16T15:10:03.155,-0.37,0.79,-0.37
43375,2025-09-16T15:10:03.165,-0.43,0.79,-0.43
43376,2025-09-16T15:10:03.175,-0.43,0.79,-0.37
43377,2025-09-16T15:10:03.185,-0.37,0.79,-0.43
43378,2025-09-16T15:10:03.195,-0.43,0.79,-0.37
43379,2025-09-16T15:10:03.204,-0.49,0.79,-0.37
43380,2025-09-16T15:10:03.214,-0.49,0.79,-0.43
43381,2025-09-16T15:10:03.224,-0.43,0.79,-0.49
43382,2025-09-16T15:10:03.234,-0.37,0.79,-0.43
43383,2025-09-16T15:10:03.243,-0.31,0.85,-0.43
43384,2025-09-16T15:10:03.253,-0.31,0.92,-0.43
43385,2025-09-16T15:10:03.264,-0.24,0.92,-0.37
43386,2025-09-16T15:10:03.272,-0.24,0.92,-0.37
43387,2025-09-16T15:10:03.282,-0.18,0.85,-0.37
43388,2025-09-16T15:10:03.292,-0.18,0.85,-0.37
43389,2025-09-16T15:10:03.302,-0.24,0.85,-0.43
43390,2025-09-16T15:10:03.311,-0.24,0.79,-0.43
43391,2025-09-16T15:10:03.321,-0.31,0.79,-0.37
43392,2025-09-16T15:10:03.331,-0.37,0.73,-0.43
43393,2025-09-16T15:10:03.341,-0.43,0.73,-0.43
43394,2025-09-16T15:10:03.351,-0.49,0.73,-0.43
43395,2025-09-16T15:10:03.361,-0.55,0.79,-0.37
43396,2025-09-16T15:10:03.370,-0.55,0.85,-0.43
43397,2025-09-16T15:10:03.380,-0.55,0.85,-0.43
43398,2025-09-16T15:10:03.390,-0.49,0.85,-0.37
43399,2025-09-16T15:10:03.399,-0.43,0.79,-0.37
43400,2025-09-16T15:10:03.410,-0.43,0.85,-0.43
43401,2025-09-16T15:10:03.420,-0.37,0.85,-0.43
43402,2025-09-16T15:10:03.430,-0.31,0.85,-0.37
43403,2025-09-16T15:10:03.439,-0.18,0.79,-0.43
43404,2025-09-16T15:10:03.449,-0.18,0.79,-0.37
43405,2025-09-16T15:10:03.459,-0.18,0.79,-0.37
43406,2025-09-16T15:10:03.468,-0.24,0.85,-0.37
43407,2025-09-16T15:10:03.478,-0.18,0.79,-0.37
43408,2025-09-16T15:10:03.488,-0.24,0.79,-0.37
43409,2025-09-16T15:10:03.498,-0.24,0.85,-0.43
43410,2025-09-16T15:10:03.507,-0.31,0.85,-0.43
43411,2025-09-16T15:10:03.517,-0.37,0.85,-0.43
43412,2025-09-16T15:10:03.527,-0.49,0.79,-0.37
43413,2025-09-16T15:10:03.537,-0.49,0.79,-0.43
43414,2025-09-16T15:10:03.546,-0.49,0.79,-0.37
43415,2025-09-16T15:10:03.556,-0.49,0.79,-0.43
43416,2025-09-16T15:10:03.566,-0.49,0.79,-0.43
43417,2025-09-16T15:10:03.575,-0.43,0.85,-0.43
43418,2025-09-16T15:10:03.586,-0.43,0.85,-0.37
43419,2025-09-16T15:10:03.595,-0.37,0.85,-0.43
43420,2025-09-16T15:10:03.605,-0.31,0.85,-0.37
43421,2025-09-16T15:10:03.615,-0.24,0.85,-0.37
43422,2025-09-16T15:10:03.624,-0.24,0.85,-0.37
43423,2025-09-16T15:10:03.635,-0.24,0.79,-0.37
43424,2025-09-16T15:10:03.644,-0.24,0.85,-0.37
43425,2025-09-16T15:10:03.655,-0.18,0.79,-0.37
43426,2025-09-16T15:10:03.664,-0.24,0.79,-0.37
43427,2025-09-16T15:10:03.673,-0.31,0.73,-0.43
43428,2025-09-16T15:10:03.683,-0.31,0.79,-0.43
43429,2025-09-16T15:10:03.693,-0.37,0.85,-0.43
43430,2025-09-16T15:10:03.703,-0.43,0.79,-0.43
43431,2025-09-16T15:10:03.713,-0.37,0.79,-0.37
43432,2025-09-16T15:10:03.723,-0.43,0.79,-0.37
43433,2025-09-16T15:10:03.733,-0.43,0.85,-0.37
43434,2025-09-16T15:10:03.742,-0.43,0.85,-0.37
43435,2025-09-16T15:10:03.752,-0.43,0.79,-0.37
43436,2025-09-16T15:10:03.762,-0.43,0.79,-0.37
43437,2025-09-16T15:10:03.772,-0.43,0.79,-0.43
43438,2025-09-16T15:10:03.782,-0.31,0.79,-0.43
43439,2025-09-16T15:10:03.792,-0.37,0.79,-0.37
43440,2025-09-16T15:10:03.801,-0.31,0.79,-0.43
43441,2025-09-16T15:10:03.811,-0.24,0.79,-0.37
43442,2025-09-16T15:10:03.821,-0.24,0.79,-0.37
43443,2025-09-16T15:10:03.831,-0.24,0.85,-0.37
43444,2025-09-16T15:10:03.840,-0.18,0.85,-0.37
43445,2025-09-16T15:10:03.850,-0.24,0.85,-0.37
43446,2025-09-16T15:10:03.860,-0.18,0.85,-0.37
43447,2025-09-16T15:10:03.870,-0.24,0.85,-0.37
43448,2025-09-16T15:10:03.880,-0.31,0.79,-0.31
43449,2025-09-16T15:10:03.890,-0.31,0.85,-0.43
43450,2025-09-16T15:10:03.900,-0.43,0.67,-0.49
43451,2025-09-16T15:10:03.909,0.06,0.98,-0.31
43452,2025-09-16T15:10:03.919,0.06,0.85,-0.31
43453,2025-09-16T15:10:03.929,-0.43,0.92,-0.43
43454,2025-09-16T15:10:03.938,-0.55,0.85,-0.43
43455,2025-09-16T15:10:03.948,-0.24,0.79,-0.24
43456,2025-09-16T15:10:03.958,1.22,1.1,-0.24
43457,2025-09-16T15:10:03.968,0.43,1.04,-0.37
43458,2025-09-16T15:10:03.978,-0.24,0.85,-0.37
43459,2025-09-16T15:10:03.988,0.0,0.85,-0.31
43460,2025-09-16T15:10:03.998,-0.31,0.85,-0.37
43461,2025-09-16T15:10:04.008,-0.18,0.85,-0.49
43462,2025-09-16T15:10:04.018,-0.24,0.79,-0.43
43463,2025-09-16T15:10:04.027,-0.18,0.73,-0.37
43464,2025-09-16T15:10:04.037,-0.24,0.73,-0.37
43465,2025-09-16T15:10:04.047,-0.37,0.79,-0.43
43466,2025-09-16T15:10:04.057,-0.43,0.73,-0.43
43467,2025-09-16T15:10:04.066,-0.49,0.73,-0.37
43468,2025-09-16T15:10:04.076,-0.43,0.73,-0.37
43469,2025-09-16T15:10:04.085,-0.61,0.85,-0.37
43470,2025-09-16T15:10:04.095,-0.55,0.85,-0.37
43471,2025-09-16T15:10:04.105,-0.49,0.92,-0.43
43472,2025-09-16T15:10:04.115,-0.49,0.92,-0.43
43473,2025-09-16T15:10:04.124,-0.37,0.92,-0.43
43474,2025-09-16T15:10:04.134,-0.31,0.85,-0.37
43475,2025-09-16T15:10:04.144,-0.24,0.79,-0.37
43476,2025-09-16T15:10:04.154,-0.24,0.79,-0.37
43477,2025-09-16T15:10:04.163,-0.24,0.79,-0.43
43478,2025-09-16T15:10:04.174,-0.18,0.73,-0.43
43479,2025-09-16T15:10:04.184,-0.06,0.79,-0.43
43480,2025-09-16T15:10:04.193,-0.06,0.79,-0.43
43481,2025-09-16T15:10:04.203,-0.18,0.79,-0.43
43482,2025-09-16T15:10:04.213,-0.24,0.79,-0.37
43483,2025-09-16T15:10:04.223,-0.24,0.85,-0.43
43484,2025-09-16T15:10:04.233,-0.31,0.85,-0.37
43485,2025-09-16T15:10:04.242,-0.43,0.85,-0.37
43486,2025-09-16T15:10:04.252,-0.43,0.92,-0.37
43487,2025-09-16T15:10:04.263,-0.43,0.98,-0.43
43488,2025-09-16T15:10:04.272,-0.37,0.92,-0.43
43489,2025-09-16T15:10:04.281,-0.37,0.92,-0.43
43490,2025-09-16T15:10:04.291,-0.37,0.85,-0.43
43491,2025-09-16T15:10:04.301,-0.37,0.73,-0.37
43492,2025-09-16T15:10:04.311,-0.31,0.79,-0.49
43493,2025-09-16T15:10:04.321,-0.24,0.79,-0.49
43494,2025-09-16T15:10:04.330,-0.31,0.73,-0.43
43495,2025-09-16T15:10:04.340,-0.31,0.73,-0.43
43496,2025-09-16T15:10:04.350,-0.31,0.79,-0.43
43497,2025-09-16T15:10:04.360,-0.31,0.79,-0.43
43498,2025-09-16T15:10:04.369,-0.31,0.92,-0.43
43499,2025-09-16T15:10:04.379,-0.31,0.92,-0.37
