sample,timestamp,gyro_x,gyro_y,gyro_z
21000,2025-09-16T15:06:24.104,-0.31,0.79,-0.31
21001,2025-09-16T15:06:24.113,-0.37,0.79,-0.37
21002,2025-09-16T15:06:24.123,-0.31,0.79,-0.37
21003,2025-09-16T15:06:24.133,-0.37,0.79,-0.37
21004,2025-09-16T15:06:24.143,-0.31,0.85,-0.43
21005,2025-09-16T15:06:24.153,-0.31,0.79,-0.37
21006,2025-09-16T15:06:24.163,-0.37,0.79,-0.43
21007,2025-09-16T15:06:24.172,-0.49,0.79,-0.37
21008,2025-09-16T15:06:24.182,-0.37,0.79,-0.43
21009,2025-09-16T15:06:24.192,-0.37,0.79,-0.43
21010,2025-09-16T15:06:24.202,-0.43,0.79,-0.43
21011,2025-09-16T15:06:24.212,-0.31,0.79,-0.43
21012,2025-09-16T15:06:24.221,-0.18,0.79,-0.43
21013,2025-09-16T15:06:24.232,-0.31,0.79,-0.43
21014,2025-09-16T15:06:24.242,-0.43,0.85,-0.49
21015,2025-09-16T15:06:24.251,-0.31,0.79,-0.31
21016,2025-09-16T15:06:24.261,0.06,0.79,-0.37
21017,2025-09-16T15:06:24.271,-0.67,0.85,-0.37
21018,2025-09-16T15:06:24.281,-0.18,0.79,-0.37
21019,2025-09-16T15:06:24.291,-0.24,0.79,-0.31
21020,2025-09-16T15:06:24.300,-0.24,0.79,-0.37
21021,2025-09-16T15:06:24.310,-0.49,0.79,-0.37
21022,2025-09-16T15:06:24.320,-0.31,0.79,-0.37
21023,2025-09-16T15:06:24.330,-0.61,0.79,-0.37
21024,2025-09-16T15:06:24.340,-0.43,0.79,-0.43
21025,2025-09-16T15:06:24.350,-0.43,0.85,-0.49
21026,2025-09-16T15:06:24.359,-0.43,0.85,-0.49
21027,2025-09-16T15:06:24.369,-0.12,0.79,-0.43
21028,2025-09-16T15:06:24.379,-0.12,0.79,-0.43
21029,2025-09-16T15:06:24.389,-0.37,0.79,-0.43
21030,2025-09-16T15:06:24.398,-0.18,0.79,-0.37
21031,2025-09-16T15:06:24.408,-0.18,0.79,-0.37
21032,2025-09-16T15:06:24.418,-0.49,0.85,-0.31
21033,2025-09-16T15:06:24.428,-0.43,0.85,-0.37
21034,2025-09-16T15:06:24.437,-0.31,0.85,-0.31
21035,2025-09-16T15:06:24.447,-0.49,0.85,-0.31
21036,2025-09-16T15:06:24.457,-0.37,0.79,-0.37
21037,2025-09-16T15:06:24.467,-0.31,0.79,-0.37
21038,2025-09-16T15:06:24.477,-0.43,0.79,-0.43
21039,2025-09-16T15:06:24.486,-0.37,0.79,-0.37
21040,2025-09-16T15:06:24.496,-0.31,0.79,-0.43
21041,2025-09-16T15:06:24.506,-0.43,0.79,-0.43
21042,2025-09-16T15:06:24.516,-0.37,0.79,-0.43
21043,2025-09-16T15:06:24.526,-0.18,0.79,-0.49
21044,2025-09-16T15:06:24.535,-0.31,0.85,-0.49
21045,2025-09-16T15:06:24.545,-0.43,0.85,-0.43
21046,2025-09-16T15:06:24.555,-0.24,0.85,-0.43
21047,2025-09-16T15:06:24.565,-0.37,0.85,-0.49
21048,2025-09-16T15:06:24.574,-0.49,0.85,-0.49
21049,2025-09-16T15:06:24.584,-0.37,0.79,-0.49
21050,2025-09-16T15:06:24.594,-0.43,0.79,-0.49
21051,2025-09-16T15:06:24.604,-0.49,0.79,-0.49
21052,2025-09-16T15:06:24.613,-0.37,0.79,-0.49
21053,2025-09-16T15:06:24.623,-0.31,0.79,-0.49
21054,2025-09-16T15:06:24.633,-0.31,0.79,-0.49
21055,2025-09-16T15:06:24.643,-0.24,0.79,-0.43
21056,2025-09-16T15:06:24.653,-0.24,0.79,-0.37
21057,2025-09-16T15:06:24.662,-0.37,0.79,-0.37
21058,2025-09-16T15:06:24.672,-0.31,0.79,-0.31
21059,2025-09-16T15:06:24.682,-0.31,0.79,-0.31
21060,2025-09-16T15:06:24.691,-0.31,0.79,-0.31
21061,2025-09-16T15:06:24.702,-0.31,0.79,-0.31
21062,2025-09-16T15:06:24.711,-0.24,0.79,-0.31
21063,2025-09-16T15:06:24.721,-0.31,0.79,-0.37
21064,2025-09-16T15:06:24.731,-0.37,0.79,-0.37
21065,2025-09-16T15:06:24.741,-0.37,0.79,-0.37
21066,2025-09-16T15:06:24.750,-0.43,0.79,-0.43
21067,2025-09-16T15:06:24.760,-0.49,0.79,-0.43
21068,2025-09-16T15:06:24.770,-0.43,0.79,-0.43
21069,2025-09-16T15:06:24.780,-0.37,0.79,-0.43
21070,2025-09-16T15:06:24.790,-0.37,0.79,-0.43
21071,2025-09-16T15:06:24.799,-0.31,0.79,-0.43
21072,2025-09-16T15:06:24.809,-0.24,0.79,-0.37
21073,2025-09-16T15:06:24.818,-0.24,0.79,-0.37
21074,2025-09-16T15:06:24.828,-0.18,0.85,-0.37
21075,2025-09-16T15:06:24.838,-0.18,0.85,-0.31
21076,2025-09-16T15:06:24.849,-0.31,0.85,-0.24
21077,2025-09-16T15:06:24.858,-0.37,0.79,-0.31
21078,2025-09-16T15:06:24.868,-0.43,0.85,-0.31
21079,2025-09-16T15:06:24.878,-0.49,0.79,-0.24
21080,2025-09-16T15:06:24.888,-0.43,0.79,-0.24
21081,2025-09-16T15:06:24.897,-0.49,0.79,-0.31
21082,2025-09-16T15:06:24.907,-0.31,0.79,-0.31
21083,2025-09-16T15:06:24.917,-0.55,0.79,-0.31
21084,2025-09-16T15:06:24.927,-0.37,0.79,-0.31
21085,2025-09-16T15:06:24.936,-0.24,0.79,-0.37
21086,2025-09-16T15:06:24.946,-0.31,0.73,-0.37
21087,2025-09-16T15:06:24.956,-0.24,0.79,-0.37
21088,2025-09-16T15:06:24.966,-0.12,0.73,-0.31
21089,2025-09-16T15:06:24.975,-0.18,0.73,-0.37
21090,2025-09-16T15:06:24.985,-0.06,0.73,-0.31
21091,2025-09-16T15:06:24.995,-0.24,0.73,-0.37
21092,2025-09-16T15:06:25.005,-0.31,0.79,-0.31
21093,2025-09-16T15:06:25.015,-0.31,0.79,-0.24
21094,2025-09-16T15:06:25.024,-0.31,0.79,-0.31
21095,2025-09-16T15:06:25.034,-0.67,0.79,-0.31
21096,2025-09-16T15:06:25.044,-0.49,0.79,-0.31
21097,2025-09-16T15:06:25.054,-0.55,0.85,-0.37
21098,2025-09-16T15:06:25.063,-0.55,0.79,-0.43
21099,2025-09-16T15:06:25.073,-0.31,0.85,-0.43
21100,2025-09-16T15:06:25.083,-0.18,0.79,-0.55
21101,2025-09-16T15:06:25.093,-0.31,0.79,-0.49
21102,2025-09-16T15:06:25.103,-0.18,0.73,-0.49
21103,2025-09-16T15:06:25.112,-0.24,0.73,-0.43
21104,2025-09-16T15:06:25.122,-0.43,0.79,-0.43
21105,2025-09-16T15:06:25.132,-0.37,0.79,-0.37
21106,2025-09-16T15:06:25.142,-0.18,0.73,-0.37
21107,2025-09-16T15:06:25.152,-0.24,0.73,-0.37
21108,2025-09-16T15:06:25.162,-0.24,0.79,-0.31
21109,2025-09-16T15:06:25.171,-0.18,0.79,-0.31
21110,2025-09-16T15:06:25.182,-0.24,0.73,-0.31
21111,2025-09-16T15:06:25.191,-0.18,0.73,-0.37
21112,2025-09-16T15:06:25.201,-0.24,0.73,-0.37
21113,2025-09-16T15:06:25.211,-0.55,0.79,-0.43
21114,2025-09-16T15:06:25.220,-0.85,0.85,-0.49
21115,2025-09-16T15:06:25.230,-0.92,0.85,-0.55
21116,2025-09-16T15:06:25.240,-0.85,0.85,-0.61
21117,2025-09-16T15:06:25.250,-0.67,0.85,-0.61
21118,2025-09-16T15:06:25.259,-0.31,0.79,-0.55
21119,2025-09-16T15:06:25.270,-0.06,0.79,-0.55
21120,2025-09-16T15:06:25.279,0.06,0.79,-0.55
21121,2025-09-16T15:06:25.289,0.12,0.79,-0.43
21122,2025-09-16T15:06:25.299,-0.06,0.79,-0.37
21123,2025-09-16T15:06:25.308,-0.31,0.85,-0.43
21124,2025-09-16T15:06:25.318,-0.31,0.79,-0.37
21125,2025-09-16T15:06:25.327,-0.37,0.85,-0.37
21126,2025-09-16T15:06:25.338,-0.61,0.85,-0.31
21127,2025-09-16T15:06:25.348,-0.49,0.79,-0.31
21128,2025-09-16T15:06:25.357,-0.43,0.79,-0.24
21129,2025-09-16T15:06:25.366,-0.49,0.79,-0.31
21130,2025-09-16T15:06:25.378,-0.49,0.85,-0.31
21131,2025-09-16T15:06:25.387,-0.24,0.79,-0.37
21132,2025-09-16T15:06:25.397,-0.31,0.85,-0.43
21133,2025-09-16T15:06:25.407,-0.49,0.92,-0.49
21134,2025-09-16T15:06:25.417,-0.37,0.85,-0.49
21135,2025-09-16T15:06:25.426,-0.31,0.85,-0.49
21136,2025-09-16T15:06:25.436,-0.55,0.79,-0.55
21137,2025-09-16T15:06:25.446,-0.61,0.79,-0.55
21138,2025-09-16T15:06:25.455,-0.55,0.79,-0.49
21139,2025-09-16T15:06:25.465,-0.43,0.85,-0.43
21140,2025-09-16T15:06:25.475,-0.18,0.79,-0.31
21141,2025-09-16T15:06:25.484,0.06,0.85,-0.31
21142,2025-09-16T15:06:25.494,0.12,0.92,-0.31
21143,2025-09-16T15:06:25.504,-0.06,0.92,-0.31
21144,2025-09-16T15:06:25.514,-0.37,0.92,-0.31
21145,2025-09-16T15:06:25.524,-0.49,0.85,-0.31
21146,2025-09-16T15:06:25.534,-0.73,0.85,-0.37
21147,2025-09-16T15:06:25.543,-0.73,0.79,-0.37
21148,2025-09-16T15:06:25.553,-0.55,0.79,-0.43
21149,2025-09-16T15:06:25.563,-0.37,0.79,-0.43
21150,2025-09-16T15:06:25.573,-0.31,0.79,-0.43
21151,2025-09-16T15:06:25.583,-0.06,0.79,-0.43
21152,2025-09-16T15:06:25.592,-0.06,0.79,-0.43
21153,2025-09-16T15:06:25.602,-0.31,0.85,-0.49
21154,2025-09-16T15:06:25.612,-0.43,0.85,-0.49
21155,2025-09-16T15:06:25.622,-0.55,0.85,-0.49
21156,2025-09-16T15:06:25.631,-0.55,0.85,-0.43
21157,2025-09-16T15:06:25.641,-0.49,0.79,-0.43
21158,2025-09-16T15:06:25.651,-0.43,0.79,-0.43
21159,2025-09-16T15:06:25.660,-0.37,0.79,-0.43
21160,2025-09-16T15:06:25.670,-0.06,0.79,-0.37
21161,2025-09-16T15:06:25.681,0.06,0.73,-0.37
21162,2025-09-16T15:06:25.690,0.06,0.73,-0.37
21163,2025-09-16T15:06:25.700,-0.06,0.73,-0.37
21164,2025-09-16T15:06:25.710,-0.24,0.79,-0.43
21165,2025-09-16T15:06:25.719,-0.55,0.85,-0.43
21166,2025-09-16T15:06:25.729,-0.79,0.92,-0.49
21167,2025-09-16T15:06:25.739,-0.61,0.92,-0.49
21168,2025-09-16T15:06:25.749,-0.43,0.85,-0.49
21169,2025-09-16T15:06:25.758,-0.37,0.92,-0.49
21170,2025-09-16T15:06:25.768,-0.31,0.85,-0.49
21171,2025-09-16T15:06:25.778,-0.43,0.85,-0.49
21172,2025-09-16T15:06:25.788,-0.37,0.85,-0.49
21173,2025-09-16T15:06:25.798,-0.37,0.85,-0.49
21174,2025-09-16T15:06:25.808,-0.43,0.85,-0.49
21175,2025-09-16T15:06:25.818,-0.49,0.98,-0.49
21176,2025-09-16T15:06:25.827,-0.43,0.98,-0.49
21177,2025-09-16T15:06:25.837,-0.31,0.92,-0.49
21178,2025-09-16T15:06:25.847,-0.31,0.92,-0.43
21179,2025-09-16T15:06:25.856,-0.31,0.92,-0.43
21180,2025-09-16T15:06:25.867,-0.24,0.85,-0.43
21181,2025-09-16T15:06:25.876,-0.31,0.85,-0.43
21182,2025-09-16T15:06:25.886,-0.24,0.85,-0.43
21183,2025-09-16T15:06:25.896,-0.31,0.85,-0.43
21184,2025-09-16T15:06:25.905,-0.31,0.85,-0.43
21185,2025-09-16T15:06:25.916,-0.43,0.85,-0.43
21186,2025-09-16T15:06:25.925,-0.37,0.85,-0.43
21187,2025-09-16T15:06:25.935,-0.55,0.92,-0.43
21188,2025-09-16T15:06:25.945,-0.73,0.92,-0.49
21189,2025-09-16T15:06:25.954,-0.67,0.92,-0.43
21190,2025-09-16T15:06:25.965,-0.61,0.92,-0.43
21191,2025-09-16T15:06:25.974,-0.49,0.85,-0.43
21192,2025-09-16T15:06:25.983,-0.12,0.85,-0.37
21193,2025-09-16T15:06:25.993,0.0,0.79,-0.37
21194,2025-09-16T15:06:26.004,0.06,0.79,-0.37
21195,2025-09-16T15:06:26.013,0.0,0.73,-0.37
21196,2025-09-16T15:06:26.023,-0.31,0.73,-0.43
21197,2025-09-16T15:06:26.032,-0.43,0.79,-0.43
21198,2025-09-16T15:06:26.042,-0.49,0.79,-0.37
21199,2025-09-16T15:06:26.052,-0.85,0.85,-0.43
21200,2025-09-16T15:06:26.062,-0.67,0.92,-0.43
21201,2025-09-16T15:06:26.072,-0.43,0.85,-0.37
21202,2025-09-16T15:06:26.082,-0.43,0.85,-0.43
21203,2025-09-16T15:06:26.091,-0.31,0.85,-0.31
21204,2025-09-16T15:06:26.101,-0.12,0.79,-0.31
21205,2025-09-16T15:06:26.111,0.0,0.79,-0.31
21206,2025-09-16T15:06:26.121,-0.12,0.79,-0.31
21207,2025-09-16T15:06:26.131,0.0,0.73,-0.24
21208,2025-09-16T15:06:26.140,-0.18,0.73,-0.31
21209,2025-09-16T15:06:26.151,-0.55,0.79,-0.31
21210,2025-09-16T15:06:26.160,-0.43,0.79,-0.31
21211,2025-09-16T15:06:26.170,-0.61,0.79,-0.37
21212,2025-09-16T15:06:26.180,-0.73,0.85,-0.43
21213,2025-09-16T15:06:26.189,-0.37,0.79,-0.43
21214,2025-09-16T15:06:26.200,-0.37,0.79,-0.49
21215,2025-09-16T15:06:26.209,-0.49,0.85,-0.49
21216,2025-09-16T15:06:26.219,-0.31,0.79,-0.49
21217,2025-09-16T15:06:26.229,-0.24,0.79,-0.49
21218,2025-09-16T15:06:26.238,-0.37,0.79,-0.43
21219,2025-09-16T15:06:26.248,-0.24,0.79,-0.43
21220,2025-09-16T15:06:26.258,-0.31,0.79,-0.43
21221,2025-09-16T15:06:26.267,-0.37,0.85,-0.37
21222,2025-09-16T15:06:26.277,-0.37,0.85,-0.31
21223,2025-09-16T15:06:26.287,-0.31,0.85,-0.37
21224,2025-09-16T15:06:26.297,-0.37,0.85,-0.37
21225,2025-09-16T15:06:26.307,-0.37,0.85,-0.37
21226,2025-09-16T15:06:26.317,-0.24,0.79,-0.37
21227,2025-09-16T15:06:26.326,-0.18,0.79,-0.37
21228,2025-09-16T15:06:26.336,-0.43,0.79,-0.37
21229,2025-09-16T15:06:26.346,-0.37,0.79,-0.37
21230,2025-09-16T15:06:26.356,-0.49,0.79,-0.43
21231,2025-09-16T15:06:26.366,-0.49,0.85,-0.37
21232,2025-09-16T15:06:26.375,-0.43,0.79,-0.49
21233,2025-09-16T15:06:26.385,-0.49,0.85,-0.49
21234,2025-09-16T15:06:26.395,-0.43,0.79,-0.49
21235,2025-09-16T15:06:26.405,-0.43,0.79,-0.43
21236,2025-09-16T15:06:26.415,-0.31,0.79,-0.43
21237,2025-09-16T15:06:26.424,-0.31,0.79,-0.43
21238,2025-09-16T15:06:26.434,-0.37,0.79,-0.37
21239,2025-09-16T15:06:26.444,-0.12,0.73,-0.31
21240,2025-09-16T15:06:26.453,-0.24,0.79,-0.31
21241,2025-09-16T15:06:26.463,-0.37,0.79,-0.31
21242,2025-09-16T15:06:26.473,-0.37,0.79,-0.24
21243,2025-09-16T15:06:26.483,-0.43,0.79,-0.24
21244,2025-09-16T15:06:26.493,-0.43,0.85,-0.31
21245,2025-09-16T15:06:26.502,-0.12,0.85,-0.31
21246,2025-09-16T15:06:26.512,-0.18,0.92,-0.31
21247,2025-09-16T15:06:26.522,-0.18,0.92,-0.37
21248,2025-09-16T15:06:26.532,-0.24,0.85,-0.37
21249,2025-09-16T15:06:26.542,-0.18,0.85,-0.49
21250,2025-09-16T15:06:26.552,-1.16,0.85,-0.61
21251,2025-09-16T15:06:26.561,-1.04,0.79,-0.61
21252,2025-09-16T15:06:26.571,-0.49,0.73,-0.55
21253,2025-09-16T15:06:26.581,-1.04,0.79,-0.67
21254,2025-09-16T15:06:26.590,-0.49,0.73,-0.55
21255,2025-09-16T15:06:26.600,0.43,0.67,-0.37
21256,2025-09-16T15:06:26.610,0.24,0.73,-0.31
21257,2025-09-16T15:06:26.620,0.43,0.73,-0.24
21258,2025-09-16T15:06:26.629,0.12,0.79,-0.24
21259,2025-09-16T15:06:26.640,-0.43,0.85,-0.24
21260,2025-09-16T15:06:26.650,-0.73,0.85,-0.18
21261,2025-09-16T15:06:26.659,-0.92,0.85,-0.24
21262,2025-09-16T15:06:26.669,-0.85,0.85,-0.24
21263,2025-09-16T15:06:26.679,-0.37,0.73,-0.24
21264,2025-09-16T15:06:26.689,-0.18,0.73,-0.31
21265,2025-09-16T15:06:26.699,0.06,0.73,-0.37
21266,2025-09-16T15:06:26.708,0.06,0.73,-0.37
21267,2025-09-16T15:06:26.718,-0.12,0.79,-0.49
21268,2025-09-16T15:06:26.728,-0.61,0.85,-0.55
21269,2025-09-16T15:06:26.737,-0.92,0.92,-0.55
21270,2025-09-16T15:06:26.748,-0.98,0.92,-0.55
21271,2025-09-16T15:06:26.757,-0.92,0.92,-0.55
21272,2025-09-16T15:06:26.767,-0.55,0.92,-0.43
21273,2025-09-16T15:06:26.777,0.12,0.79,-0.31
21274,2025-09-16T15:06:26.787,0.37,0.73,-0.31
21275,2025-09-16T15:06:26.796,0.37,0.73,-0.24
21276,2025-09-16T15:06:26.807,0.37,0.73,-0.24
21277,2025-09-16T15:06:26.817,0.0,0.73,-0.24
21278,2025-09-16T15:06:26.827,-0.55,0.79,-0.31
21279,2025-09-16T15:06:26.836,-0.85,0.79,-0.37
21280,2025-09-16T15:06:26.846,-0.92,0.85,-0.43
21281,2025-09-16T15:06:26.855,-0.98,0.85,-0.43
21282,2025-09-16T15:06:26.865,-0.73,0.85,-0.37
21283,2025-09-16T15:06:26.875,-0.37,0.79,-0.37
21284,2025-09-16T15:06:26.885,0.0,0.73,-0.37
21285,2025-09-16T15:06:26.894,0.06,0.73,-0.37
21286,2025-09-16T15:06:26.904,0.12,0.73,-0.37
21287,2025-09-16T15:06:26.914,-0.12,0.79,-0.37
21288,2025-09-16T15:06:26.924,-0.31,0.85,-0.43
21289,2025-09-16T15:06:26.934,-0.43,0.85,-0.43
21290,2025-09-16T15:06:26.943,-0.61,0.92,-0.49
21291,2025-09-16T15:06:26.953,-0.73,0.92,-0.43
21292,2025-09-16T15:06:26.963,-0.55,0.92,-0.43
21293,2025-09-16T15:06:26.973,-0.37,0.85,-0.49
21294,2025-09-16T15:06:26.982,-0.24,0.85,-0.43
21295,2025-09-16T15:06:26.992,-0.12,0.79,-0.43
21296,2025-09-16T15:06:27.002,-0.12,0.73,-0.49
21297,2025-09-16T15:06:27.012,-0.31,0.73,-0.49
21298,2025-09-16T15:06:27.021,-0.43,0.79,-0.43
21299,2025-09-16T15:06:27.032,-0.55,0.73,-0.43
21300,2025-09-16T15:06:27.041,-0.49,0.73,-0.37
21301,2025-09-16T15:06:27.051,-0.31,0.67,-0.31
21302,2025-09-16T15:06:27.061,-0.12,0.67,-0.24
21303,2025-09-16T15:06:27.070,0.06,0.67,-0.24
21304,2025-09-16T15:06:27.080,-0.06,0.73,-0.18
21305,2025-09-16T15:06:27.090,-0.12,0.73,-0.24
21306,2025-09-16T15:06:27.100,-0.37,0.85,-0.24
21307,2025-09-16T15:06:27.109,-0.61,0.85,-0.37
21308,2025-09-16T15:06:27.119,-0.67,0.92,-0.43
21309,2025-09-16T15:06:27.129,-0.67,0.92,-0.49
21310,2025-09-16T15:06:27.139,-0.73,0.92,-0.61
21311,2025-09-16T15:06:27.149,-0.61,0.85,-0.61
21312,2025-09-16T15:06:27.159,-0.55,0.79,-0.67
21313,2025-09-16T15:06:27.169,-0.31,0.79,-0.61
21314,2025-09-16T15:06:27.178,-0.06,0.79,-0.55
21315,2025-09-16T15:06:27.188,-0.24,0.79,-0.55
21316,2025-09-16T15:06:27.198,-0.18,0.79,-0.49
21317,2025-09-16T15:06:27.208,0.0,0.79,-0.43
21318,2025-09-16T15:06:27.218,-0.18,0.85,-0.37
21319,2025-09-16T15:06:27.227,-0.31,0.85,-0.31
21320,2025-09-16T15:06:27.237,-0.24,0.79,-0.24
21321,2025-09-16T15:06:27.247,-0.43,0.79,-0.18
21322,2025-09-16T15:06:27.256,-0.43,0.73,-0.18
21323,2025-09-16T15:06:27.266,-0.31,0.73,-0.18
21324,2025-09-16T15:06:27.276,-0.24,0.73,-0.18
21325,2025-09-16T15:06:27.286,-0.06,0.73,-0.31
21326,2025-09-16T15:06:27.296,-0.24,0.79,-0.37
21327,2025-09-16T15:06:27.305,-0.31,0.79,-0.49
21328,2025-09-16T15:06:27.315,-0.55,0.79,-0.55
21329,2025-09-16T15:06:27.325,-1.04,0.85,-0.67
21330,2025-09-16T15:06:27.335,-1.16,0.85,-0.79
21331,2025-09-16T15:06:27.345,-1.1,0.92,-0.73
21332,2025-09-16T15:06:27.354,-0.67,0.85,-0.67
21333,2025-09-16T15:06:27.364,-0.24,0.79,-0.61
21334,2025-09-16T15:06:27.374,0.31,0.79,-0.55
21335,2025-09-16T15:06:27.384,0.61,0.73,-0.37
21336,2025-09-16T15:06:27.393,0.67,0.73,-0.37
21337,2025-09-16T15:06:27.403,0.18,0.79,-0.24
21338,2025-09-16T15:06:27.413,-0.31,0.79,-0.24
21339,2025-09-16T15:06:27.423,-0.85,0.85,-0.18
21340,2025-09-16T15:06:27.432,-0.98,0.85,-0.18
21341,2025-09-16T15:06:27.442,-0.92,0.79,-0.18
21342,2025-09-16T15:06:27.452,-0.43,0.79,-0.18
21343,2025-09-16T15:06:27.461,-0.06,0.73,-0.12
21344,2025-09-16T15:06:27.472,0.31,0.67,-0.18
21345,2025-09-16T15:06:27.481,0.12,0.67,-0.24
21346,2025-09-16T15:06:27.491,-0.12,0.67,-0.31
21347,2025-09-16T15:06:27.501,-0.49,0.67,-0.37
21348,2025-09-16T15:06:27.511,-0.92,0.73,-0.49
21349,2025-09-16T15:06:27.521,-1.04,0.79,-0.55
21350,2025-09-16T15:06:27.530,-0.85,0.79,-0.55
21351,2025-09-16T15:06:27.540,-0.49,0.79,-0.43
21352,2025-09-16T15:06:27.550,0.0,0.79,-0.43
21353,2025-09-16T15:06:27.560,0.31,0.79,-0.37
21354,2025-09-16T15:06:27.569,0.31,0.79,-0.37
21355,2025-09-16T15:06:27.579,-0.06,0.79,-0.24
21356,2025-09-16T15:06:27.589,0.49,0.73,-0.31
21357,2025-09-16T15:06:27.599,-1.04,0.92,-0.31
21358,2025-09-16T15:06:27.609,-0.49,0.85,-0.37
21359,2025-09-16T15:06:27.618,-0.55,0.85,-0.24
21360,2025-09-16T15:06:27.628,-0.85,0.92,-0.43
21361,2025-09-16T15:06:27.639,-0.67,0.85,-0.37
21362,2025-09-16T15:06:27.649,0.06,0.79,-0.37
21363,2025-09-16T15:06:27.658,-0.31,0.79,-0.37
21364,2025-09-16T15:06:27.668,0.06,0.73,-0.43
21365,2025-09-16T15:06:27.678,-0.24,0.73,-0.49
21366,2025-09-16T15:06:27.688,-0.43,0.73,-0.43
21367,2025-09-16T15:06:27.697,-0.43,0.73,-0.43
21368,2025-09-16T15:06:27.707,-0.61,0.79,-0.49
21369,2025-09-16T15:06:27.718,-0.79,0.85,-0.43
21370,2025-09-16T15:06:27.727,-0.37,0.85,-0.43
21371,2025-09-16T15:06:27.737,-0.37,0.79,-0.37
21372,2025-09-16T15:06:27.746,-0.24,0.85,-0.37
21373,2025-09-16T15:06:27.757,0.0,0.79,-0.37
21374,2025-09-16T15:06:27.766,-0.06,0.79,-0.37
21375,2025-09-16T15:06:27.776,-0.31,0.79,-0.31
21376,2025-09-16T15:06:27.786,-0.18,0.79,-0.37
21377,2025-09-16T15:06:27.796,-0.43,0.79,-0.43
21378,2025-09-16T15:06:27.806,-0.61,0.85,-0.43
21379,2025-09-16T15:06:27.816,-0.49,0.79,-0.37
21380,2025-09-16T15:06:27.825,-0.49,0.85,-0.43
21381,2025-09-16T15:06:27.835,-0.37,0.85,-0.43
21382,2025-09-16T15:06:27.844,-0.24,0.85,-0.43
21383,2025-09-16T15:06:27.854,-0.31,0.85,-0.43
21384,2025-09-16T15:06:27.864,-0.31,0.85,-0.49
21385,2025-09-16T15:06:27.874,-0.37,0.85,-0.43
21386,2025-09-16T15:06:27.884,-0.43,0.85,-0.49
21387,2025-09-16T15:06:27.893,-0.49,0.79,-0.43
21388,2025-09-16T15:06:27.902,-0.43,0.79,-0.43
21389,2025-09-16T15:06:27.912,-0.31,0.79,-0.43
21390,2025-09-16T15:06:27.922,-0.24,0.79,-0.43
21391,2025-09-16T15:06:27.933,-0.24,0.79,-0.43
21392,2025-09-16T15:06:27.943,-0.12,0.73,-0.37
21393,2025-09-16T15:06:27.952,-0.24,0.79,-0.37
21394,2025-09-16T15:06:27.962,-0.43,0.79,-0.37
21395,2025-09-16T15:06:27.972,-0.37,0.79,-0.37
21396,2025-09-16T15:06:27.982,-0.43,0.79,-0.37
21397,2025-09-16T15:06:27.992,-0.49,0.79,-0.37
21398,2025-09-16T15:06:28.001,-0.37,0.79,-0.37
21399,2025-09-16T15:06:28.011,-0.24,0.79,-0.37
21400,2025-09-16T15:06:28.020,-0.31,0.79,-0.37
21401,2025-09-16T15:06:28.030,-0.37,0.79,-0.37
21402,2025-09-16T15:06:28.040,-0.31,0.79,-0.43
21403,2025-09-16T15:06:28.050,-0.37,0.85,-0.43
21404,2025-09-16T15:06:28.060,-0.49,0.85,-0.43
21405,2025-09-16T15:06:28.070,-0.49,0.85,-0.49
21406,2025-09-16T15:06:28.079,-0.37,0.79,-0.43
21407,2025-09-16T15:06:28.089,-0.43,0.79,-0.43
21408,2025-09-16T15:06:28.099,-0.24,0.79,-0.49
21409,2025-09-16T15:06:28.109,-0.18,0.73,-0.43
21410,2025-09-16T15:06:28.119,-0.24,0.73,-0.43
21411,2025-09-16T15:06:28.128,-0.31,0.73,-0.43
21412,2025-09-16T15:06:28.138,-0.37,0.79,-0.37
21413,2025-09-16T15:06:28.148,-0.37,0.73,-0.37
21414,2025-09-16T15:06:28.158,-0.43,0.79,-0.37
21415,2025-09-16T15:06:28.168,-0.43,0.79,-0.37
21416,2025-09-16T15:06:28.177,-0.31,0.79,-0.31
21417,2025-09-16T15:06:28.187,-0.31,0.79,-0.31
21418,2025-09-16T15:06:28.197,-0.37,0.79,-0.31
21419,2025-09-16T15:06:28.207,-0.31,0.85,-0.31
21420,2025-09-16T15:06:28.216,-0.18,0.79,-0.37
21421,2025-09-16T15:06:28.226,-0.49,0.85,-0.37
21422,2025-09-16T15:06:28.236,-0.43,0.79,-0.43
21423,2025-09-16T15:06:28.246,-0.43,0.85,-0.43
21424,2025-09-16T15:06:28.255,-0.37,0.85,-0.49
21425,2025-09-16T15:06:28.265,-0.43,0.85,-0.43
21426,2025-09-16T15:06:28.275,-0.24,0.85,-0.49
21427,2025-09-16T15:06:28.285,-0.37,0.85,-0.49
21428,2025-09-16T15:06:28.294,-0.24,0.85,-0.49
21429,2025-09-16T15:06:28.304,-0.31,0.85,-0.43
21430,2025-09-16T15:06:28.314,-0.31,0.85,-0.43
21431,2025-09-16T15:06:28.324,-0.43,0.79,-0.37
21432,2025-09-16T15:06:28.333,-0.31,0.79,-0.43
21433,2025-09-16T15:06:28.344,-0.37,0.79,-0.31
21434,2025-09-16T15:06:28.353,-0.24,0.73,-0.37
21435,2025-09-16T15:06:28.363,-0.24,0.79,-0.31
21436,2025-09-16T15:06:28.374,-0.24,0.73,-0.31
21437,2025-09-16T15:06:28.383,-0.31,0.73,-0.31
21438,2025-09-16T15:06:28.393,-0.24,0.79,-0.31
21439,2025-09-16T15:06:28.402,-0.31,0.79,-0.37
21440,2025-09-16T15:06:28.412,-0.43,0.79,-0.37
21441,2025-09-16T15:06:28.421,-0.43,0.85,-0.43
21442,2025-09-16T15:06:28.432,-0.49,0.79,-0.43
21443,2025-09-16T15:06:28.441,-0.49,0.79,-0.43
21444,2025-09-16T15:06:28.451,-0.43,0.85,-0.43
21445,2025-09-16T15:06:28.460,-0.31,0.85,-0.43
21446,2025-09-16T15:06:28.471,-0.31,0.79,-0.43
21447,2025-09-16T15:06:28.480,-0.24,0.85,-0.43
21448,2025-09-16T15:06:28.490,-0.31,0.79,-0.43
21449,2025-09-16T15:06:28.500,-0.31,0.85,-0.43
21450,2025-09-16T15:06:28.509,-0.37,0.79,-0.43
21451,2025-09-16T15:06:28.520,-0.31,0.85,-0.37
21452,2025-09-16T15:06:28.529,-0.31,0.85,-0.37
21453,2025-09-16T15:06:28.539,-0.24,0.85,-0.37
21454,2025-09-16T15:06:28.549,-0.37,0.79,-0.37
21455,2025-09-16T15:06:28.559,-0.31,0.79,-0.37
21456,2025-09-16T15:06:28.569,-0.31,0.79,-0.31
21457,2025-09-16T15:06:28.578,-0.37,0.79,-0.31
21458,2025-09-16T15:06:28.588,-0.37,0.73,-0.31
21459,2025-09-16T15:06:28.598,-0.37,0.79,-0.31
21460,2025-09-16T15:06:28.608,-0.37,0.79,-0.24
21461,2025-09-16T15:06:28.617,-0.31,0.79,-0.31
21462,2025-09-16T15:06:28.627,-0.31,0.79,-0.31
21463,2025-09-16T15:06:28.637,-0.24,0.73,-0.24
21464,2025-09-16T15:06:28.647,-0.24,0.79,-0.31
21465,2025-09-16T15:06:28.657,-0.24,0.79,-0.31
21466,2025-09-16T15:06:28.666,-0.43,0.79,-0.31
21467,2025-09-16T15:06:28.676,-0.49,0.79,-0.31
21468,2025-09-16T15:06:28.686,-0.31,0.79,-0.37
21469,2025-09-16T15:06:28.695,-0.18,0.73,-0.31
21470,2025-09-16T15:06:28.706,-0.18,0.73,-0.31
21471,2025-09-16T15:06:28.715,-0.24,0.73,-0.31
21472,2025-09-16T15:06:28.725,-0.18,0.73,-0.31
21473,2025-09-16T15:06:28.735,-0.24,0.73,-0.31
21474,2025-09-16T15:06:28.745,-0.43,0.73,-0.24
21475,2025-09-16T15:06:28.754,-0.37,0.79,-0.31
21476,2025-09-16T15:06:28.764,-0.43,0.79,-0.31
21477,2025-09-16T15:06:28.774,-0.43,0.79,-0.24
21478,2025-09-16T15:06:28.784,-0.31,0.79,-0.31
21479,2025-09-16T15:06:28.794,-0.18,0.73,-0.31
21480,2025-09-16T15:06:28.804,-0.31,0.79,-0.31
21481,2025-09-16T15:06:28.813,-0.31,0.73,-0.37
21482,2025-09-16T15:06:28.823,-0.31,0.79,-0.37
21483,2025-09-16T15:06:28.832,-0.37,0.79,-0.37
21484,2025-09-16T15:06:28.842,-0.37,0.73,-0.37
21485,2025-09-16T15:06:28.852,-0.37,0.79,-0.37
21486,2025-09-16T15:06:28.862,-0.37,0.79,-0.37
21487,2025-09-16T15:06:28.872,-0.31,0.79,-0.31
21488,2025-09-16T15:06:28.882,-0.24,0.79,-0.31
21489,2025-09-16T15:06:28.891,-0.24,0.79,-0.31
21490,2025-09-16T15:06:28.901,-0.24,0.85,-0.31
21491,2025-09-16T15:06:28.911,-0.24,0.79,-0.31
21492,2025-09-16T15:06:28.921,-0.31,0.79,-0.31
21493,2025-09-16T15:06:28.931,-0.37,0.79,-0.31
21494,2025-09-16T15:06:28.941,-0.43,0.73,-0.31
21495,2025-09-16T15:06:28.950,-0.43,0.79,-0.37
21496,2025-09-16T15:06:28.960,-0.31,0.79,-0.37
21497,2025-09-16T15:06:28.970,-0.31,0.79,-0.37
21498,2025-09-16T15:06:28.980,-0.31,0.79,-0.37
21499,2025-09-16T15:06:28.989,-0.24,0.79,-0.37
