sample,timestamp,gyro_x,gyro_y,gyro_z
19000,2025-09-16T15:06:04.524,-0.24,0.73,-0.31
19001,2025-09-16T15:06:04.534,-0.43,0.79,-0.37
19002,2025-09-16T15:06:04.543,-0.43,0.79,-0.37
19003,2025-09-16T15:06:04.553,-0.43,0.79,-0.43
19004,2025-09-16T15:06:04.563,-0.43,0.73,-0.49
19005,2025-09-16T15:06:04.573,-0.43,0.73,-0.55
19006,2025-09-16T15:06:04.583,-0.18,0.73,-0.49
19007,2025-09-16T15:06:04.592,-0.24,0.73,-0.55
19008,2025-09-16T15:06:04.602,-0.37,0.73,-0.55
19009,2025-09-16T15:06:04.612,-0.43,0.73,-0.61
19010,2025-09-16T15:06:04.621,-0.37,0.73,-0.61
19011,2025-09-16T15:06:04.632,-0.49,0.79,-0.67
19012,2025-09-16T15:06:04.641,-0.49,0.79,-0.67
19013,2025-09-16T15:06:04.651,-0.49,0.85,-0.67
19014,2025-09-16T15:06:04.661,-0.43,0.79,-0.61
19015,2025-09-16T15:06:04.670,-0.49,0.79,-0.55
19016,2025-09-16T15:06:04.680,-0.49,0.79,-0.61
19017,2025-09-16T15:06:04.690,-0.43,0.73,-0.55
19018,2025-09-16T15:06:04.700,-0.43,0.73,-0.55
19019,2025-09-16T15:06:04.709,-0.37,0.67,-0.43
19020,2025-09-16T15:06:04.720,-0.37,0.73,-0.49
19021,2025-09-16T15:06:04.729,-0.37,0.67,-0.49
19022,2025-09-16T15:06:04.739,-0.37,0.73,-0.61
19023,2025-09-16T15:06:04.749,-0.31,0.85,-0.55
19024,2025-09-16T15:06:04.759,-0.55,0.98,-0.79
19025,2025-09-16T15:06:04.769,-0.37,0.98,-0.79
19026,2025-09-16T15:06:04.779,-0.73,1.04,-1.16
19027,2025-09-16T15:06:04.788,-0.61,1.04,-1.1
19028,2025-09-16T15:06:04.798,-0.79,1.04,-1.16
19029,2025-09-16T15:06:04.808,-0.73,1.04,-1.16
19030,2025-09-16T15:06:04.818,-0.85,0.98,-1.28
19031,2025-09-16T15:06:04.828,-0.67,0.85,-1.1
19032,2025-09-16T15:06:04.838,-0.61,0.79,-0.85
19033,2025-09-16T15:06:04.847,-0.55,0.79,-0.67
19034,2025-09-16T15:06:04.857,-0.49,0.73,-0.43
19035,2025-09-16T15:06:04.867,-0.24,0.79,-0.12
19036,2025-09-16T15:06:04.876,-0.12,0.79,0.06
19037,2025-09-16T15:06:04.886,-0.12,0.79,0.18
19038,2025-09-16T15:06:04.896,-0.06,0.79,0.24
19039,2025-09-16T15:06:04.906,0.06,0.79,0.24
19040,2025-09-16T15:06:04.916,0.06,0.85,0.18
19041,2025-09-16T15:06:04.925,0.0,0.79,0.0
19042,2025-09-16T15:06:04.935,-0.06,0.73,-0.18
19043,2025-09-16T15:06:04.945,-0.18,0.67,-0.37
19044,2025-09-16T15:06:04.955,-0.37,0.73,-0.61
19045,2025-09-16T15:06:04.964,-0.55,0.73,-0.85
19046,2025-09-16T15:06:04.973,-0.61,0.79,-0.98
19047,2025-09-16T15:06:04.984,-0.73,0.85,-1.04
19048,2025-09-16T15:06:04.994,-0.79,0.85,-0.98
19049,2025-09-16T15:06:05.003,-0.73,0.92,-0.85
19050,2025-09-16T15:06:05.012,-0.61,0.98,-0.73
19051,2025-09-16T15:06:05.023,-0.55,0.98,-0.55
19052,2025-09-16T15:06:05.033,-0.43,0.92,-0.37
19053,2025-09-16T15:06:05.043,-0.31,0.92,-0.24
19054,2025-09-16T15:06:05.053,-0.12,0.79,-0.06
19055,2025-09-16T15:06:05.063,-0.06,0.79,-0.06
19056,2025-09-16T15:06:05.072,0.0,0.67,0.0
19057,2025-09-16T15:06:05.082,0.06,0.67,0.0
19058,2025-09-16T15:06:05.092,0.0,0.67,-0.12
19059,2025-09-16T15:06:05.102,-0.06,0.67,-0.18
19060,2025-09-16T15:06:05.112,-0.24,0.73,-0.37
19061,2025-09-16T15:06:05.121,-0.37,0.79,-0.49
19062,2025-09-16T15:06:05.131,-0.49,0.85,-0.55
19063,2025-09-16T15:06:05.141,-0.61,0.92,-0.67
19064,2025-09-16T15:06:05.150,-0.73,0.92,-0.73
19065,2025-09-16T15:06:05.160,-0.67,0.92,-0.73
19066,2025-09-16T15:06:05.170,-0.67,0.92,-0.73
19067,2025-09-16T15:06:05.180,-0.55,0.85,-0.67
19068,2025-09-16T15:06:05.189,-0.43,0.79,-0.49
19069,2025-09-16T15:06:05.199,-0.31,0.79,-0.43
19070,2025-09-16T15:06:05.209,-0.24,0.79,-0.24
19071,2025-09-16T15:06:05.219,-0.12,0.79,-0.18
19072,2025-09-16T15:06:05.229,-0.12,0.79,-0.12
19073,2025-09-16T15:06:05.239,-0.06,0.79,-0.06
19074,2025-09-16T15:06:05.248,-0.06,0.79,-0.06
19075,2025-09-16T15:06:05.258,-0.12,0.79,-0.12
19076,2025-09-16T15:06:05.268,-0.24,0.85,-0.24
19077,2025-09-16T15:06:05.278,-0.31,0.85,-0.31
19078,2025-09-16T15:06:05.288,-0.37,0.85,-0.49
19079,2025-09-16T15:06:05.297,-0.49,0.79,-0.55
19080,2025-09-16T15:06:05.306,-0.55,0.73,-0.61
19081,2025-09-16T15:06:05.317,-0.61,0.79,-0.67
19082,2025-09-16T15:06:05.327,-0.61,0.79,-0.67
19083,2025-09-16T15:06:05.337,-0.55,0.79,-0.67
19084,2025-09-16T15:06:05.346,-0.49,0.79,-0.55
19085,2025-09-16T15:06:05.356,-0.37,0.79,-0.49
19086,2025-09-16T15:06:05.366,-0.37,0.79,-0.37
19087,2025-09-16T15:06:05.376,-0.18,0.85,-0.31
19088,2025-09-16T15:06:05.385,-0.18,0.85,-0.24
19089,2025-09-16T15:06:05.395,-0.12,0.85,-0.18
19090,2025-09-16T15:06:05.405,-0.12,0.79,-0.12
19091,2025-09-16T15:06:05.415,-0.12,0.79,-0.12
19092,2025-09-16T15:06:05.424,-0.24,0.79,-0.18
19093,2025-09-16T15:06:05.434,-0.31,0.79,-0.24
19094,2025-09-16T15:06:05.444,-0.37,0.79,-0.37
19095,2025-09-16T15:06:05.454,-0.43,0.79,-0.43
19096,2025-09-16T15:06:05.463,-0.49,0.79,-0.55
19097,2025-09-16T15:06:05.473,-0.49,0.79,-0.55
19098,2025-09-16T15:06:05.483,-0.55,0.79,-0.55
19099,2025-09-16T15:06:05.493,-0.55,0.79,-0.61
19100,2025-09-16T15:06:05.502,-0.49,0.85,-0.55
19101,2025-09-16T15:06:05.512,-0.43,0.79,-0.43
19102,2025-09-16T15:06:05.522,-0.31,0.79,-0.31
19103,2025-09-16T15:06:05.531,-0.18,0.79,-0.12
19104,2025-09-16T15:06:05.541,-0.06,0.73,-0.06
19105,2025-09-16T15:06:05.551,0.0,0.73,0.06
19106,2025-09-16T15:06:05.561,0.06,0.67,0.12
19107,2025-09-16T15:06:05.571,0.0,0.73,0.18
19108,2025-09-16T15:06:05.580,0.0,0.67,0.18
19109,2025-09-16T15:06:05.590,-0.24,0.73,0.0
19110,2025-09-16T15:06:05.600,-0.18,0.67,0.0
19111,2025-09-16T15:06:05.610,-0.37,0.73,-0.18
19112,2025-09-16T15:06:05.621,-0.31,0.73,-0.18
19113,2025-09-16T15:06:05.630,-0.31,0.73,-0.37
19114,2025-09-16T15:06:05.640,-0.31,0.73,-0.31
19115,2025-09-16T15:06:05.650,-0.37,0.67,-0.37
19116,2025-09-16T15:06:05.659,-0.18,0.61,-0.18
19117,2025-09-16T15:06:05.669,-0.31,0.61,-0.18
19118,2025-09-16T15:06:05.679,-0.18,0.61,0.06
19119,2025-09-16T15:06:05.689,0.0,0.55,0.31
19120,2025-09-16T15:06:05.698,0.12,0.55,0.55
19121,2025-09-16T15:06:05.708,0.37,0.61,0.55
19122,2025-09-16T15:06:05.718,-0.18,0.79,0.49
19123,2025-09-16T15:06:05.728,2.38,0.55,1.28
19124,2025-09-16T15:06:05.738,-1.46,1.22,-0.67
19125,2025-09-16T15:06:05.747,0.55,1.04,0.55
19126,2025-09-16T15:06:05.757,-0.37,1.34,-0.55
19127,2025-09-16T15:06:05.767,-0.43,1.1,-0.24
19128,2025-09-16T15:06:05.777,-1.1,1.22,-1.53
19129,2025-09-16T15:06:05.787,-0.55,0.85,-0.85
19130,2025-09-16T15:06:05.796,-1.4,0.85,-1.4
19131,2025-09-16T15:06:05.806,-0.67,0.55,-0.85
19132,2025-09-16T15:06:05.817,-0.92,0.73,-1.16
19133,2025-09-16T15:06:05.826,-0.24,0.73,-0.55
19134,2025-09-16T15:06:05.836,-0.43,0.85,-0.31
19135,2025-09-16T15:06:05.845,0.12,0.92,0.12
19136,2025-09-16T15:06:05.856,-0.49,1.04,0.24
19137,2025-09-16T15:06:05.865,0.24,1.04,0.55
19138,2025-09-16T15:06:05.875,-0.43,1.1,0.55
19139,2025-09-16T15:06:05.884,0.12,0.98,0.55
19140,2025-09-16T15:06:05.895,0.12,0.92,0.37
19141,2025-09-16T15:06:05.905,0.37,0.85,0.18
19142,2025-09-16T15:06:05.914,0.0,0.73,-0.24
19143,2025-09-16T15:06:05.924,0.06,0.67,-0.37
19144,2025-09-16T15:06:05.934,-0.37,0.73,-0.73
19145,2025-09-16T15:06:05.943,-0.49,0.73,-0.92
19146,2025-09-16T15:06:05.953,-0.85,0.85,-1.04
19147,2025-09-16T15:06:05.963,-0.92,0.98,-1.04
19148,2025-09-16T15:06:05.973,-0.98,1.04,-1.04
19149,2025-09-16T15:06:05.983,-0.85,1.1,-0.79
19150,2025-09-16T15:06:05.992,-0.79,1.1,-0.61
19151,2025-09-16T15:06:06.002,-0.55,1.1,-0.37
19152,2025-09-16T15:06:06.012,-0.43,1.1,-0.18
19153,2025-09-16T15:06:06.021,-0.12,0.92,0.0
19154,2025-09-16T15:06:06.032,-0.06,0.85,0.06
19155,2025-09-16T15:06:06.041,0.0,0.73,0.12
19156,2025-09-16T15:06:06.051,0.0,0.67,0.12
19157,2025-09-16T15:06:06.061,0.12,0.67,0.12
19158,2025-09-16T15:06:06.070,0.0,0.73,-0.06
19159,2025-09-16T15:06:06.080,0.06,0.79,-0.12
19160,2025-09-16T15:06:06.090,-0.12,0.85,-0.24
19161,2025-09-16T15:06:06.100,-0.24,0.92,-0.37
19162,2025-09-16T15:06:06.110,-0.55,0.98,-0.49
19163,2025-09-16T15:06:06.119,-0.61,0.98,-0.55
19164,2025-09-16T15:06:06.129,-0.73,0.92,-0.55
19165,2025-09-16T15:06:06.139,-0.67,0.85,-0.49
19166,2025-09-16T15:06:06.149,-0.73,0.79,-0.43
19167,2025-09-16T15:06:06.159,-0.49,0.79,-0.37
19168,2025-09-16T15:06:06.169,-0.37,0.73,-0.24
19169,2025-09-16T15:06:06.179,-0.24,0.73,-0.18
19170,2025-09-16T15:06:06.188,-0.06,0.79,-0.18
19171,2025-09-16T15:06:06.198,0.0,0.79,-0.12
19172,2025-09-16T15:06:06.208,0.0,0.85,-0.12
19173,2025-09-16T15:06:06.218,-0.06,0.85,-0.18
19174,2025-09-16T15:06:06.227,-0.18,0.92,-0.37
19175,2025-09-16T15:06:06.237,-0.24,0.92,-0.43
19176,2025-09-16T15:06:06.247,-0.31,0.85,-0.49
19177,2025-09-16T15:06:06.260,-0.43,0.85,-0.61
19178,2025-09-16T15:06:06.267,-0.55,0.85,-0.67
19179,2025-09-16T15:06:06.276,-0.61,0.79,-0.73
19180,2025-09-16T15:06:06.287,-0.67,0.73,-0.73
19181,2025-09-16T15:06:06.295,-0.67,0.67,-0.67
19182,2025-09-16T15:06:06.305,-0.61,0.67,-0.55
19183,2025-09-16T15:06:06.315,-0.55,0.61,-0.49
19184,2025-09-16T15:06:06.325,-0.37,0.61,-0.37
19185,2025-09-16T15:06:06.335,-0.31,0.61,-0.31
19186,2025-09-16T15:06:06.344,-0.18,0.61,-0.12
19187,2025-09-16T15:06:06.354,0.06,0.61,0.0
19188,2025-09-16T15:06:06.364,0.06,0.61,-0.06
19189,2025-09-16T15:06:06.374,0.0,0.55,-0.06
19190,2025-09-16T15:06:06.383,-0.06,0.55,-0.12
19191,2025-09-16T15:06:06.393,-0.12,0.55,-0.18
19192,2025-09-16T15:06:06.403,-0.18,0.55,-0.24
19193,2025-09-16T15:06:06.414,-0.31,0.61,-0.37
19194,2025-09-16T15:06:06.423,-0.43,0.67,-0.49
19195,2025-09-16T15:06:06.433,-0.43,0.67,-0.49
19196,2025-09-16T15:06:06.443,-0.67,0.73,-0.61
19197,2025-09-16T15:06:06.453,-0.55,0.73,-0.49
19198,2025-09-16T15:06:06.463,-0.55,0.73,-0.55
19199,2025-09-16T15:06:06.472,-0.49,0.67,-0.49
19200,2025-09-16T15:06:06.482,-0.43,0.67,-0.43
19201,2025-09-16T15:06:06.492,-0.43,0.67,-0.43
19202,2025-09-16T15:06:06.501,-0.12,0.67,-0.31
19203,2025-09-16T15:06:06.511,-0.12,0.67,-0.37
19204,2025-09-16T15:06:06.521,-0.06,0.73,-0.31
19205,2025-09-16T15:06:06.530,-0.12,0.73,-0.37
19206,2025-09-16T15:06:06.540,-0.18,0.79,-0.31
19207,2025-09-16T15:06:06.550,-0.31,0.85,-0.43
19208,2025-09-16T15:06:06.560,-0.31,0.85,-0.43
19209,2025-09-16T15:06:06.570,-0.43,0.85,-0.49
19210,2025-09-16T15:06:06.579,-0.43,0.79,-0.49
19211,2025-09-16T15:06:06.589,-0.61,0.85,-0.55
19212,2025-09-16T15:06:06.599,-0.43,0.79,-0.37
19213,2025-09-16T15:06:06.609,-0.61,0.85,-0.55
19214,2025-09-16T15:06:06.618,-0.67,0.85,-0.55
19215,2025-09-16T15:06:06.628,-0.61,0.92,-0.55
19216,2025-09-16T15:06:06.638,-0.61,0.92,-0.61
19217,2025-09-16T15:06:06.648,-0.24,0.92,-0.31
19218,2025-09-16T15:06:06.657,-0.43,0.98,-0.61
19219,2025-09-16T15:06:06.667,-0.06,0.85,-0.37
19220,2025-09-16T15:06:06.677,-0.12,0.85,-0.43
19221,2025-09-16T15:06:06.687,0.12,0.73,-0.18
19222,2025-09-16T15:06:06.697,-0.18,0.73,-0.31
19223,2025-09-16T15:06:06.707,-0.06,0.73,-0.18
19224,2025-09-16T15:06:06.716,-0.61,0.79,-0.31
19225,2025-09-16T15:06:06.726,-0.24,0.79,-0.12
19226,2025-09-16T15:06:06.736,-0.73,0.85,-0.37
19227,2025-09-16T15:06:06.745,-0.37,0.85,-0.31
19228,2025-09-16T15:06:06.756,-0.55,0.92,-0.43
19229,2025-09-16T15:06:06.765,-0.37,0.85,-0.37
19230,2025-09-16T15:06:06.775,-0.37,0.85,-0.43
19231,2025-09-16T15:06:06.785,-0.43,0.85,-0.49
19232,2025-09-16T15:06:06.795,-0.43,0.79,-0.55
19233,2025-09-16T15:06:06.804,-0.37,0.73,-0.55
19234,2025-09-16T15:06:06.815,-0.43,0.79,-0.55
19235,2025-09-16T15:06:06.825,-0.31,0.79,-0.55
19236,2025-09-16T15:06:06.834,-0.31,0.85,-0.49
19237,2025-09-16T15:06:06.845,-0.24,0.92,-0.49
19238,2025-09-16T15:06:06.854,-0.24,0.92,-0.43
19239,2025-09-16T15:06:06.864,-0.37,1.04,-0.49
19240,2025-09-16T15:06:06.874,-0.37,1.04,-0.49
19241,2025-09-16T15:06:06.883,-0.55,1.04,-0.49
19242,2025-09-16T15:06:06.893,-0.55,0.92,-0.43
19243,2025-09-16T15:06:06.903,-0.61,0.85,-0.43
19244,2025-09-16T15:06:06.913,-0.55,0.79,-0.37
19245,2025-09-16T15:06:06.923,-0.49,0.73,-0.37
19246,2025-09-16T15:06:06.931,-0.24,0.67,-0.24
19247,2025-09-16T15:06:06.942,-0.24,0.67,-0.24
19248,2025-09-16T15:06:06.952,-0.12,0.73,-0.18
19249,2025-09-16T15:06:06.962,-0.12,0.79,-0.31
19250,2025-09-16T15:06:06.972,-0.12,0.85,-0.24
19251,2025-09-16T15:06:06.981,-0.24,0.92,-0.37
19252,2025-09-16T15:06:06.991,-0.24,0.92,-0.37
19253,2025-09-16T15:06:07.001,-0.37,0.92,-0.43
19254,2025-09-16T15:06:07.011,-0.37,0.92,-0.49
19255,2025-09-16T15:06:07.020,-0.49,0.92,-0.55
19256,2025-09-16T15:06:07.030,-0.43,0.79,-0.61
19257,2025-09-16T15:06:07.040,-0.49,0.79,-0.61
19258,2025-09-16T15:06:07.050,-0.49,0.85,-0.67
19259,2025-09-16T15:06:07.060,-0.55,0.79,-0.61
19260,2025-09-16T15:06:07.069,-0.55,0.79,-0.55
19261,2025-09-16T15:06:07.079,-0.49,0.79,-0.49
19262,2025-09-16T15:06:07.089,-0.49,0.79,-0.43
19263,2025-09-16T15:06:07.099,-0.43,0.79,-0.31
19264,2025-09-16T15:06:07.109,-0.31,0.79,-0.31
19265,2025-09-16T15:06:07.118,-0.18,0.79,-0.24
19266,2025-09-16T15:06:07.128,-0.12,0.73,-0.18
19267,2025-09-16T15:06:07.138,-0.06,0.73,-0.18
19268,2025-09-16T15:06:07.148,-0.06,0.73,-0.24
19269,2025-09-16T15:06:07.158,-0.18,0.73,-0.31
19270,2025-09-16T15:06:07.167,-0.18,0.73,-0.31
19271,2025-09-16T15:06:07.177,-0.31,0.67,-0.37
19272,2025-09-16T15:06:07.187,-0.37,0.67,-0.43
19273,2025-09-16T15:06:07.196,-0.49,0.73,-0.43
19274,2025-09-16T15:06:07.206,-0.55,0.73,-0.49
19275,2025-09-16T15:06:07.216,-0.55,0.79,-0.49
19276,2025-09-16T15:06:07.226,-0.49,0.79,-0.43
19277,2025-09-16T15:06:07.236,-0.43,0.79,-0.43
19278,2025-09-16T15:06:07.245,-0.43,0.79,-0.37
19279,2025-09-16T15:06:07.255,-0.31,0.79,-0.31
19280,2025-09-16T15:06:07.265,-0.24,0.79,-0.31
19281,2025-09-16T15:06:07.275,-0.18,0.79,-0.31
19282,2025-09-16T15:06:07.284,-0.18,0.79,-0.24
19283,2025-09-16T15:06:07.294,-0.18,0.79,-0.24
19284,2025-09-16T15:06:07.304,-0.18,0.79,-0.31
19285,2025-09-16T15:06:07.314,-0.24,0.79,-0.37
19286,2025-09-16T15:06:07.324,-0.24,0.79,-0.37
19287,2025-09-16T15:06:07.333,-0.37,0.79,-0.49
19288,2025-09-16T15:06:07.343,-0.43,0.79,-0.49
19289,2025-09-16T15:06:07.353,-0.49,0.79,-0.55
19290,2025-09-16T15:06:07.363,-0.55,0.79,-0.55
19291,2025-09-16T15:06:07.373,-0.55,0.85,-0.55
19292,2025-09-16T15:06:07.382,-0.49,0.79,-0.49
19293,2025-09-16T15:06:07.392,-0.49,0.79,-0.49
19294,2025-09-16T15:06:07.402,-0.43,0.79,-0.43
19295,2025-09-16T15:06:07.411,-0.37,0.79,-0.37
19296,2025-09-16T15:06:07.422,-0.31,0.73,-0.37
19297,2025-09-16T15:06:07.431,-0.18,0.73,-0.31
19298,2025-09-16T15:06:07.441,-0.18,0.73,-0.24
19299,2025-09-16T15:06:07.451,-0.12,0.73,-0.18
19300,2025-09-16T15:06:07.461,-0.12,0.79,-0.24
19301,2025-09-16T15:06:07.471,-0.12,0.79,-0.24
19302,2025-09-16T15:06:07.480,-0.24,0.85,-0.31
19303,2025-09-16T15:06:07.490,-0.31,0.85,-0.31
19304,2025-09-16T15:06:07.500,-0.37,0.85,-0.37
19305,2025-09-16T15:06:07.510,-0.43,0.79,-0.43
19306,2025-09-16T15:06:07.520,-0.55,0.85,-0.49
19307,2025-09-16T15:06:07.529,-0.55,0.79,-0.49
19308,2025-09-16T15:06:07.539,-0.55,0.85,-0.55
19309,2025-09-16T15:06:07.548,-0.49,0.85,-0.55
19310,2025-09-16T15:06:07.559,-0.43,0.85,-0.61
19311,2025-09-16T15:06:07.568,-0.43,0.79,-0.55
19312,2025-09-16T15:06:07.578,-0.31,0.79,-0.55
19313,2025-09-16T15:06:07.588,-0.31,0.79,-0.49
19314,2025-09-16T15:06:07.598,-0.24,0.79,-0.43
19315,2025-09-16T15:06:07.608,-0.12,0.73,-0.31
19316,2025-09-16T15:06:07.617,-0.31,0.73,-0.37
19317,2025-09-16T15:06:07.627,-0.18,0.73,-0.24
19318,2025-09-16T15:06:07.637,-0.31,0.73,-0.24
19319,2025-09-16T15:06:07.647,-0.24,0.79,-0.24
19320,2025-09-16T15:06:07.656,-0.31,0.79,-0.24
19321,2025-09-16T15:06:07.666,-0.31,0.73,-0.18
19322,2025-09-16T15:06:07.676,-0.37,0.79,-0.24
19323,2025-09-16T15:06:07.687,-0.31,0.73,-0.24
19324,2025-09-16T15:06:07.696,-0.43,0.79,-0.31
19325,2025-09-16T15:06:07.706,-0.37,0.73,-0.24
19326,2025-09-16T15:06:07.715,-0.37,0.79,-0.31
19327,2025-09-16T15:06:07.725,-0.31,0.85,-0.37
19328,2025-09-16T15:06:07.734,-0.31,0.79,-0.43
19329,2025-09-16T15:06:07.745,-0.31,0.85,-0.43
19330,2025-09-16T15:06:07.754,-0.31,0.92,-0.55
19331,2025-09-16T15:06:07.764,-0.37,0.92,-0.55
19332,2025-09-16T15:06:07.773,-0.37,0.92,-0.55
19333,2025-09-16T15:06:07.783,-0.37,0.92,-0.61
19334,2025-09-16T15:06:07.793,-0.49,0.92,-0.61
19335,2025-09-16T15:06:07.803,-0.49,0.92,-0.61
19336,2025-09-16T15:06:07.813,-0.49,0.85,-0.55
19337,2025-09-16T15:06:07.823,-0.55,0.85,-0.55
19338,2025-09-16T15:06:07.833,-0.43,0.85,-0.49
19339,2025-09-16T15:06:07.843,-0.37,0.79,-0.43
19340,2025-09-16T15:06:07.853,-0.37,0.85,-0.37
19341,2025-09-16T15:06:07.862,-0.43,0.85,-0.43
19342,2025-09-16T15:06:07.872,-0.31,0.79,-0.31
19343,2025-09-16T15:06:07.881,-0.37,0.85,-0.37
19344,2025-09-16T15:06:07.892,-0.31,0.85,-0.24
19345,2025-09-16T15:06:07.901,-0.31,0.92,-0.31
19346,2025-09-16T15:06:07.911,-0.18,0.92,-0.24
19347,2025-09-16T15:06:07.921,-0.18,0.92,-0.31
19348,2025-09-16T15:06:07.931,-0.24,0.92,-0.31
19349,2025-09-16T15:06:07.940,-0.31,0.85,-0.31
19350,2025-09-16T15:06:07.950,-0.37,0.85,-0.31
19351,2025-09-16T15:06:07.960,-0.37,0.85,-0.37
19352,2025-09-16T15:06:07.970,-0.55,0.85,-0.43
19353,2025-09-16T15:06:07.980,-0.43,0.85,-0.37
19354,2025-09-16T15:06:07.990,-0.43,0.85,-0.31
19355,2025-09-16T15:06:07.999,-0.43,0.79,-0.31
19356,2025-09-16T15:06:08.009,-0.31,0.79,-0.31
19357,2025-09-16T15:06:08.019,-0.31,0.79,-0.24
19358,2025-09-16T15:06:08.029,-0.24,0.79,-0.18
19359,2025-09-16T15:06:08.039,-0.24,0.85,-0.18
19360,2025-09-16T15:06:08.048,-0.18,0.85,-0.18
19361,2025-09-16T15:06:08.058,-0.18,0.85,-0.18
19362,2025-09-16T15:06:08.068,-0.18,0.92,-0.18
19363,2025-09-16T15:06:08.078,-0.18,0.85,-0.24
19364,2025-09-16T15:06:08.087,-0.31,0.85,-0.31
19365,2025-09-16T15:06:08.097,-0.37,0.85,-0.37
19366,2025-09-16T15:06:08.107,-0.37,0.85,-0.43
19367,2025-09-16T15:06:08.116,-0.43,0.79,-0.49
19368,2025-09-16T15:06:08.127,-0.43,0.79,-0.61
19369,2025-09-16T15:06:08.136,-0.49,0.79,-0.61
19370,2025-09-16T15:06:08.146,-0.73,0.73,-0.67
19371,2025-09-16T15:06:08.156,-1.28,0.67,-0.73
19372,2025-09-16T15:06:08.165,-1.28,0.67,-0.73
19373,2025-09-16T15:06:08.175,-0.85,0.73,-0.55
19374,2025-09-16T15:06:08.185,-0.67,0.73,-0.49
19375,2025-09-16T15:06:08.195,-0.55,0.73,-0.31
19376,2025-09-16T15:06:08.205,-0.37,0.67,-0.18
19377,2025-09-16T15:06:08.214,-0.24,0.67,-0.06
19378,2025-09-16T15:06:08.224,-0.12,0.61,0.0
19379,2025-09-16T15:06:08.234,-0.06,0.61,0.06
19380,2025-09-16T15:06:08.243,-0.12,0.61,0.0
19381,2025-09-16T15:06:08.253,-0.12,0.61,-0.06
19382,2025-09-16T15:06:08.263,-0.12,0.67,-0.12
19383,2025-09-16T15:06:08.273,-0.37,0.73,-0.24
19384,2025-09-16T15:06:08.283,-0.55,0.79,-0.43
19385,2025-09-16T15:06:08.293,-0.61,0.85,-0.61
19386,2025-09-16T15:06:08.303,-0.61,0.92,-0.73
19387,2025-09-16T15:06:08.312,-0.61,0.92,-0.79
19388,2025-09-16T15:06:08.322,-0.55,0.85,-0.79
19389,2025-09-16T15:06:08.331,-0.55,0.85,-0.79
19390,2025-09-16T15:06:08.342,-0.55,0.79,-0.79
19391,2025-09-16T15:06:08.351,-0.55,0.73,-0.73
19392,2025-09-16T15:06:08.361,-0.61,0.73,-0.67
19393,2025-09-16T15:06:08.371,-0.49,0.79,-0.49
19394,2025-09-16T15:06:08.381,-0.37,0.79,-0.37
19395,2025-09-16T15:06:08.391,-0.31,0.85,-0.24
19396,2025-09-16T15:06:08.401,-0.31,0.92,-0.12
19397,2025-09-16T15:06:08.411,-0.31,0.85,-0.06
19398,2025-09-16T15:06:08.420,0.0,0.79,0.0
19399,2025-09-16T15:06:08.430,-0.55,0.85,-0.18
19400,2025-09-16T15:06:08.440,-0.31,0.79,-0.24
19401,2025-09-16T15:06:08.450,-0.24,0.73,-0.31
19402,2025-09-16T15:06:08.459,-0.24,0.73,-0.43
19403,2025-09-16T15:06:08.469,-0.31,0.67,-0.49
19404,2025-09-16T15:06:08.479,-0.37,0.67,-0.61
19405,2025-09-16T15:06:08.489,-0.49,0.73,-0.73
19406,2025-09-16T15:06:08.498,-0.55,0.79,-0.79
19407,2025-09-16T15:06:08.508,-0.55,0.85,-0.79
19408,2025-09-16T15:06:08.518,-0.55,0.92,-0.73
19409,2025-09-16T15:06:08.528,-0.49,0.92,-0.61
19410,2025-09-16T15:06:08.537,-0.43,0.92,-0.49
19411,2025-09-16T15:06:08.547,-0.37,0.85,-0.43
19412,2025-09-16T15:06:08.557,-0.31,0.85,-0.31
19413,2025-09-16T15:06:08.567,-0.24,0.73,-0.12
19414,2025-09-16T15:06:08.577,-0.18,0.67,-0.06
19415,2025-09-16T15:06:08.586,-0.24,0.67,-0.12
19416,2025-09-16T15:06:08.597,-0.31,0.67,-0.18
19417,2025-09-16T15:06:08.606,-0.31,0.67,-0.24
19418,2025-09-16T15:06:08.616,-0.18,0.73,-0.31
19419,2025-09-16T15:06:08.626,-0.24,0.79,-0.43
19420,2025-09-16T15:06:08.635,-0.18,0.79,-0.49
19421,2025-09-16T15:06:08.645,-0.24,0.85,-0.67
19422,2025-09-16T15:06:08.655,-0.18,0.85,-0.67
19423,2025-09-16T15:06:08.665,-0.43,0.85,-0.79
19424,2025-09-16T15:06:08.676,-0.49,0.85,-0.79
19425,2025-09-16T15:06:08.684,-0.61,0.92,-0.79
19426,2025-09-16T15:06:08.694,-0.61,0.85,-0.73
19427,2025-09-16T15:06:08.704,-0.61,0.85,-0.73
19428,2025-09-16T15:06:08.714,-0.43,0.85,-0.55
19429,2025-09-16T15:06:08.723,-0.37,0.85,-0.49
19430,2025-09-16T15:06:08.733,-0.31,0.85,-0.37
19431,2025-09-16T15:06:08.743,-0.31,0.85,-0.31
19432,2025-09-16T15:06:08.753,-0.31,0.79,-0.24
19433,2025-09-16T15:06:08.763,-0.31,0.79,-0.24
19434,2025-09-16T15:06:08.773,-0.31,0.73,-0.31
19435,2025-09-16T15:06:08.782,-0.31,0.79,-0.37
19436,2025-09-16T15:06:08.792,-0.24,0.79,-0.43
19437,2025-09-16T15:06:08.802,-0.24,0.79,-0.49
19438,2025-09-16T15:06:08.812,-0.12,0.79,-0.49
19439,2025-09-16T15:06:08.821,-0.06,0.85,-0.61
19440,2025-09-16T15:06:08.831,-0.24,0.85,-0.73
19441,2025-09-16T15:06:08.841,-0.37,0.79,-0.73
19442,2025-09-16T15:06:08.850,-0.49,0.85,-0.79
19443,2025-09-16T15:06:08.860,-0.55,0.85,-0.79
19444,2025-09-16T15:06:08.870,-0.55,0.85,-0.73
19445,2025-09-16T15:06:08.880,-0.55,0.85,-0.73
19446,2025-09-16T15:06:08.890,-0.43,0.85,-0.67
19447,2025-09-16T15:06:08.899,-0.43,0.85,-0.61
19448,2025-09-16T15:06:08.909,-0.31,0.85,-0.49
19449,2025-09-16T15:06:08.919,-0.31,0.85,-0.49
19450,2025-09-16T15:06:08.929,-0.31,0.85,-0.49
19451,2025-09-16T15:06:08.939,-0.31,0.79,-0.37
19452,2025-09-16T15:06:08.949,-0.31,0.79,-0.31
19453,2025-09-16T15:06:08.958,-0.31,0.79,-0.37
19454,2025-09-16T15:06:08.968,-0.31,0.73,-0.37
19455,2025-09-16T15:06:08.978,-0.31,0.79,-0.37
19456,2025-09-16T15:06:08.988,-0.31,0.73,-0.37
19457,2025-09-16T15:06:08.997,-0.31,0.79,-0.37
19458,2025-09-16T15:06:09.007,-0.37,0.79,-0.43
19459,2025-09-16T15:06:09.017,-0.31,0.79,-0.37
19460,2025-09-16T15:06:09.027,-0.37,0.85,-0.37
19461,2025-09-16T15:06:09.037,-0.37,0.85,-0.37
19462,2025-09-16T15:06:09.047,-0.37,0.79,-0.43
19463,2025-09-16T15:06:09.057,-0.37,0.85,-0.43
19464,2025-09-16T15:06:09.066,-0.31,0.79,-0.43
19465,2025-09-16T15:06:09.076,-0.31,0.79,-0.43
19466,2025-09-16T15:06:09.086,-0.31,0.79,-0.43
19467,2025-09-16T15:06:09.096,-0.31,0.79,-0.43
19468,2025-09-16T15:06:09.105,-0.31,0.79,-0.49
19469,2025-09-16T15:06:09.115,-0.31,0.79,-0.43
19470,2025-09-16T15:06:09.125,-0.37,0.79,-0.43
19471,2025-09-16T15:06:09.134,-0.37,0.79,-0.37
19472,2025-09-16T15:06:09.144,-0.37,0.79,-0.37
19473,2025-09-16T15:06:09.154,-0.37,0.79,-0.31
19474,2025-09-16T15:06:09.164,-0.31,0.85,-0.24
19475,2025-09-16T15:06:09.174,-0.31,0.85,-0.24
19476,2025-09-16T15:06:09.183,-0.31,0.79,-0.24
19477,2025-09-16T15:06:09.193,-0.31,0.79,-0.31
19478,2025-09-16T15:06:09.203,-0.31,0.79,-0.24
19479,2025-09-16T15:06:09.212,-0.24,0.79,-0.31
19480,2025-09-16T15:06:09.223,-0.24,0.73,-0.31
19481,2025-09-16T15:06:09.232,-0.31,0.73,-0.31
19482,2025-09-16T15:06:09.242,-0.24,0.73,-0.31
19483,2025-09-16T15:06:09.252,-0.31,0.73,-0.37
19484,2025-09-16T15:06:09.262,-0.31,0.79,-0.37
19485,2025-09-16T15:06:09.272,-0.37,0.79,-0.37
19486,2025-09-16T15:06:09.282,-0.31,0.79,-0.31
19487,2025-09-16T15:06:09.292,-0.37,0.79,-0.31
19488,2025-09-16T15:06:09.302,-0.31,0.79,-0.24
19489,2025-09-16T15:06:09.312,-0.37,0.79,-0.24
19490,2025-09-16T15:06:09.321,-0.31,0.79,-0.24
19491,2025-09-16T15:06:09.331,-0.31,0.79,-0.24
19492,2025-09-16T15:06:09.340,-0.24,0.85,-0.24
19493,2025-09-16T15:06:09.350,-0.24,0.85,-0.24
19494,2025-09-16T15:06:09.360,-0.31,0.79,-0.31
19495,2025-09-16T15:06:09.370,-0.31,0.85,-0.31
19496,2025-09-16T15:06:09.379,-0.31,0.85,-0.37
19497,2025-09-16T15:06:09.389,-0.31,0.85,-0.43
19498,2025-09-16T15:06:09.399,-0.31,0.85,-0.49
19499,2025-09-16T15:06:09.409,-0.37,0.85,-0.49
