sample,timestamp,gyro_x,gyro_y,gyro_z
20000,2025-09-16T15:06:14.314,-0.43,0.79,-0.49
20001,2025-09-16T15:06:14.324,-0.43,0.79,-0.49
20002,2025-09-16T15:06:14.333,-0.37,0.79,-0.49
20003,2025-09-16T15:06:14.344,-0.31,0.79,-0.43
20004,2025-09-16T15:06:14.353,-0.37,0.79,-0.37
20005,2025-09-16T15:06:14.363,-0.06,0.79,-0.37
20006,2025-09-16T15:06:14.373,-0.24,0.79,-0.31
20007,2025-09-16T15:06:14.382,-0.37,0.85,-0.31
20008,2025-09-16T15:06:14.392,-0.43,0.85,-0.31
20009,2025-09-16T15:06:14.402,-0.49,0.85,-0.31
20010,2025-09-16T15:06:14.412,-0.49,0.85,-0.31
20011,2025-09-16T15:06:14.421,-0.49,0.79,-0.31
20012,2025-09-16T15:06:14.431,-0.31,0.79,-0.37
20013,2025-09-16T15:06:14.441,-0.31,0.79,-0.37
20014,2025-09-16T15:06:14.451,-0.31,0.79,-0.43
20015,2025-09-16T15:06:14.461,-0.24,0.73,-0.43
20016,2025-09-16T15:06:14.470,-0.31,0.79,-0.43
20017,2025-09-16T15:06:14.480,-0.43,0.79,-0.49
20018,2025-09-16T15:06:14.490,-0.37,0.79,-0.43
20019,2025-09-16T15:06:14.500,-0.49,0.79,-0.49
20020,2025-09-16T15:06:14.510,-0.43,0.85,-0.49
20021,2025-09-16T15:06:14.520,-0.37,0.79,-0.43
20022,2025-09-16T15:06:14.529,-0.37,0.79,-0.43
20023,2025-09-16T15:06:14.539,-0.37,0.79,-0.37
20024,2025-09-16T15:06:14.548,-0.31,0.79,-0.37
20025,2025-09-16T15:06:14.558,-0.31,0.79,-0.37
20026,2025-09-16T15:06:14.569,-0.31,0.79,-0.37
20027,2025-09-16T15:06:14.578,-0.31,0.79,-0.31
20028,2025-09-16T15:06:14.588,-0.24,0.79,-0.31
20029,2025-09-16T15:06:14.598,-0.24,0.79,-0.31
20030,2025-09-16T15:06:14.607,-0.24,0.73,-0.31
20031,2025-09-16T15:06:14.617,-0.37,0.73,-0.31
20032,2025-09-16T15:06:14.627,-0.37,0.79,-0.31
20033,2025-09-16T15:06:14.637,-0.37,0.79,-0.37
20034,2025-09-16T15:06:14.647,-0.43,0.79,-0.43
20035,2025-09-16T15:06:14.656,-0.55,0.85,-0.43
20036,2025-09-16T15:06:14.666,-0.37,0.79,-0.43
20037,2025-09-16T15:06:14.677,-0.24,0.79,-0.43
20038,2025-09-16T15:06:14.686,-0.49,0.85,-0.49
20039,2025-09-16T15:06:14.696,-0.61,0.85,-0.49
20040,2025-09-16T15:06:14.705,-0.37,0.73,-0.49
20041,2025-09-16T15:06:14.715,-0.37,0.73,-0.49
20042,2025-09-16T15:06:14.725,-0.06,0.73,-0.43
20043,2025-09-16T15:06:14.735,-0.06,0.67,-0.37
20044,2025-09-16T15:06:14.745,0.0,0.61,-0.37
20045,2025-09-16T15:06:14.754,0.0,0.67,-0.31
20046,2025-09-16T15:06:14.764,-0.24,0.73,-0.37
20047,2025-09-16T15:06:14.774,-0.43,0.79,-0.37
20048,2025-09-16T15:06:14.786,-0.55,0.92,-0.37
20049,2025-09-16T15:06:14.792,-0.61,0.92,-0.31
20050,2025-09-16T15:06:14.803,-0.49,0.92,-0.37
20051,2025-09-16T15:06:14.813,-0.31,0.92,-0.37
20052,2025-09-16T15:06:14.823,-0.24,0.92,-0.37
20053,2025-09-16T15:06:14.833,-0.31,0.92,-0.43
20054,2025-09-16T15:06:14.843,-0.43,0.92,-0.49
20055,2025-09-16T15:06:14.852,-0.55,0.92,-0.55
20056,2025-09-16T15:06:14.862,-0.55,0.92,-0.55
20057,2025-09-16T15:06:14.872,-0.67,0.92,-0.55
20058,2025-09-16T15:06:14.881,-0.67,0.92,-0.49
20059,2025-09-16T15:06:14.891,-0.37,0.85,-0.49
20060,2025-09-16T15:06:14.901,-0.06,0.85,-0.43
20061,2025-09-16T15:06:14.911,0.12,0.85,-0.37
20062,2025-09-16T15:06:14.921,-0.18,0.85,-0.37
20063,2025-09-16T15:06:14.931,-0.24,0.92,-0.31
20064,2025-09-16T15:06:14.941,-0.18,0.92,-0.37
20065,2025-09-16T15:06:14.950,-0.98,1.04,-0.37
20066,2025-09-16T15:06:14.959,-1.4,1.04,-0.43
20067,2025-09-16T15:06:14.969,-0.73,0.92,-0.37
20068,2025-09-16T15:06:14.979,0.12,0.85,-0.31
20069,2025-09-16T15:06:14.989,0.06,0.79,-0.31
20070,2025-09-16T15:06:14.998,-0.31,0.79,-0.31
20071,2025-09-16T15:06:15.008,-0.18,0.79,-0.31
20072,2025-09-16T15:06:15.018,-0.24,0.79,-0.37
20073,2025-09-16T15:06:15.028,-0.37,0.79,-0.31
20074,2025-09-16T15:06:15.038,-0.31,0.79,-0.31
20075,2025-09-16T15:06:15.048,-0.55,0.85,-0.31
20076,2025-09-16T15:06:15.058,-0.55,0.92,-0.37
20077,2025-09-16T15:06:15.067,-0.49,0.85,-0.37
20078,2025-09-16T15:06:15.077,-0.61,0.92,-0.31
20079,2025-09-16T15:06:15.087,-0.31,0.85,-0.31
20080,2025-09-16T15:06:15.097,-0.18,0.85,-0.31
20081,2025-09-16T15:06:15.107,-0.12,0.79,-0.31
20082,2025-09-16T15:06:15.116,0.0,0.79,-0.31
20083,2025-09-16T15:06:15.126,-0.18,0.79,-0.31
20084,2025-09-16T15:06:15.136,-0.43,0.79,-0.37
20085,2025-09-16T15:06:15.145,-0.37,0.79,-0.31
20086,2025-09-16T15:06:15.155,-0.49,0.79,-0.37
20087,2025-09-16T15:06:15.165,-0.67,0.85,-0.43
20088,2025-09-16T15:06:15.175,-0.92,0.85,-0.43
20089,2025-09-16T15:06:15.186,-0.49,0.79,-0.31
20090,2025-09-16T15:06:15.195,0.43,0.73,-0.24
20091,2025-09-16T15:06:15.204,0.18,0.73,-0.31
20092,2025-09-16T15:06:15.216,-0.18,0.79,-0.31
20093,2025-09-16T15:06:15.225,-0.24,0.73,-0.24
20094,2025-09-16T15:06:15.235,-0.49,0.85,-0.37
20095,2025-09-16T15:06:15.245,-0.79,0.85,-0.37
20096,2025-09-16T15:06:15.254,-0.49,0.79,-0.43
20097,2025-09-16T15:06:15.264,-0.49,0.79,-0.43
20098,2025-09-16T15:06:15.274,-0.24,0.73,-0.43
20099,2025-09-16T15:06:15.284,-0.12,0.73,-0.43
20100,2025-09-16T15:06:15.293,-0.18,0.73,-0.43
20101,2025-09-16T15:06:15.303,-0.31,0.73,-0.43
20102,2025-09-16T15:06:15.313,-0.43,0.79,-0.43
20103,2025-09-16T15:06:15.323,-0.37,0.79,-0.37
20104,2025-09-16T15:06:15.332,-0.49,0.79,-0.31
20105,2025-09-16T15:06:15.342,-0.43,0.79,-0.31
20106,2025-09-16T15:06:15.352,-0.31,0.79,-0.24
20107,2025-09-16T15:06:15.362,-0.18,0.79,-0.24
20108,2025-09-16T15:06:15.371,-0.18,0.79,-0.24
20109,2025-09-16T15:06:15.381,-0.12,0.79,-0.24
20110,2025-09-16T15:06:15.392,-0.18,0.79,-0.31
20111,2025-09-16T15:06:15.401,-0.37,0.79,-0.37
20112,2025-09-16T15:06:15.411,-0.43,0.79,-0.43
20113,2025-09-16T15:06:15.420,-0.49,0.79,-0.43
20114,2025-09-16T15:06:15.431,0.43,0.79,-0.43
20115,2025-09-16T15:06:15.440,2.99,0.98,0.37
20116,2025-09-16T15:06:15.450,5.98,1.4,3.48
20117,2025-09-16T15:06:15.459,2.5,0.79,2.81
20118,2025-09-16T15:06:15.469,-2.5,1.59,2.62
20119,2025-09-16T15:06:15.480,8.85,-0.43,-0.73
20120,2025-09-16T15:06:15.489,-2.56,1.4,-0.43
20121,2025-09-16T15:06:15.499,1.95,-0.31,-0.37
20122,2025-09-16T15:06:15.509,-0.43,1.22,-0.24
20123,2025-09-16T15:06:15.518,2.56,0.43,0.0
20124,2025-09-16T15:06:15.528,-1.22,0.98,-0.12
20125,2025-09-16T15:06:15.538,-2.87,1.04,0.0
20126,2025-09-16T15:06:15.548,1.71,0.73,-0.37
20127,2025-09-16T15:06:15.558,-1.46,0.92,0.31
20128,2025-09-16T15:06:15.567,0.61,0.61,-0.18
20129,2025-09-16T15:06:15.577,-1.1,0.73,-0.12
20130,2025-09-16T15:06:15.587,1.28,0.43,-0.37
20131,2025-09-16T15:06:15.597,-0.73,0.67,-0.43
20132,2025-09-16T15:06:15.606,-0.79,0.73,-0.61
20133,2025-09-16T15:06:15.616,-0.61,0.73,-0.49
20134,2025-09-16T15:06:15.626,0.31,0.73,-0.79
20135,2025-09-16T15:06:15.636,-2.26,1.04,-0.61
20136,2025-09-16T15:06:15.646,0.0,0.85,-0.79
20137,2025-09-16T15:06:15.656,-0.43,0.92,-0.55
20138,2025-09-16T15:06:15.666,-0.49,0.92,-0.55
20139,2025-09-16T15:06:15.675,-0.06,0.85,-0.43
20140,2025-09-16T15:06:15.685,0.61,0.73,-0.31
20141,2025-09-16T15:06:15.695,-0.12,0.79,-0.37
20142,2025-09-16T15:06:15.705,-0.18,0.79,-0.37
20143,2025-09-16T15:06:15.714,-0.24,0.79,-0.24
20144,2025-09-16T15:06:15.724,-0.24,0.73,-0.37
20145,2025-09-16T15:06:15.734,-0.92,0.79,-0.31
20146,2025-09-16T15:06:15.744,-0.43,0.73,-0.31
20147,2025-09-16T15:06:15.753,-0.24,0.73,-0.31
20148,2025-09-16T15:06:15.763,-0.73,0.79,-0.37
20149,2025-09-16T15:06:15.773,-0.31,0.73,-0.37
20150,2025-09-16T15:06:15.782,-0.12,0.79,-0.37
20151,2025-09-16T15:06:15.792,-0.43,0.79,-0.43
20152,2025-09-16T15:06:15.801,-0.37,0.79,-0.49
20153,2025-09-16T15:06:15.812,-0.18,0.79,-0.43
20154,2025-09-16T15:06:15.822,-0.49,0.79,-0.49
20155,2025-09-16T15:06:15.832,-0.37,0.79,-0.49
20156,2025-09-16T15:06:15.841,-0.24,0.79,-0.43
20157,2025-09-16T15:06:15.851,-0.31,0.79,-0.49
20158,2025-09-16T15:06:15.861,-0.37,0.79,-0.37
20159,2025-09-16T15:06:15.871,-0.06,0.79,-0.37
20160,2025-09-16T15:06:15.881,-0.24,0.85,-0.37
20161,2025-09-16T15:06:15.890,-0.55,0.85,-0.43
20162,2025-09-16T15:06:15.900,-0.24,0.85,-0.49
20163,2025-09-16T15:06:15.910,-0.55,0.85,-0.43
20164,2025-09-16T15:06:15.920,-0.49,0.85,-0.55
20165,2025-09-16T15:06:15.930,-0.61,0.85,-0.43
20166,2025-09-16T15:06:15.939,-0.31,0.79,-0.49
20167,2025-09-16T15:06:15.949,-0.43,0.79,-0.49
20168,2025-09-16T15:06:15.959,-0.43,0.79,-0.43
20169,2025-09-16T15:06:15.968,-0.12,0.73,-0.37
20170,2025-09-16T15:06:15.979,-0.37,0.79,-0.37
20171,2025-09-16T15:06:15.989,-0.43,0.79,-0.31
20172,2025-09-16T15:06:15.998,-0.24,0.79,-0.24
20173,2025-09-16T15:06:16.008,-0.31,0.79,-0.24
20174,2025-09-16T15:06:16.018,-0.37,0.85,-0.24
20175,2025-09-16T15:06:16.027,-0.18,0.85,-0.18
20176,2025-09-16T15:06:16.037,-0.18,0.85,-0.24
20177,2025-09-16T15:06:16.047,-0.18,0.85,-0.24
20178,2025-09-16T15:06:16.056,-0.12,0.79,-0.24
20179,2025-09-16T15:06:16.066,-0.06,0.79,-0.37
20180,2025-09-16T15:06:16.076,-0.49,0.85,-0.43
20181,2025-09-16T15:06:16.086,-0.85,0.85,-0.55
20182,2025-09-16T15:06:16.095,-0.92,0.92,-0.55
20183,2025-09-16T15:06:16.106,-0.73,0.85,-0.55
20184,2025-09-16T15:06:16.116,-0.37,0.79,-0.55
20185,2025-09-16T15:06:16.125,-0.06,0.67,-0.24
20186,2025-09-16T15:06:16.135,0.24,0.73,-0.31
20187,2025-09-16T15:06:16.145,0.0,0.79,-0.24
20188,2025-09-16T15:06:16.155,0.12,0.79,-0.12
20189,2025-09-16T15:06:16.164,0.0,0.73,-0.18
20190,2025-09-16T15:06:16.174,-0.55,0.79,-0.12
20191,2025-09-16T15:06:16.184,-0.31,0.79,-0.18
20192,2025-09-16T15:06:16.194,-0.55,0.79,-0.18
20193,2025-09-16T15:06:16.203,-0.24,0.73,-0.24
20194,2025-09-16T15:06:16.213,-0.24,0.67,-0.24
20195,2025-09-16T15:06:16.223,0.0,0.67,-0.37
20196,2025-09-16T15:06:16.233,-0.18,0.67,-0.37
20197,2025-09-16T15:06:16.243,-0.37,0.73,-0.43
20198,2025-09-16T15:06:16.252,-0.55,0.79,-0.55
20199,2025-09-16T15:06:16.262,-0.61,0.85,-0.55
20200,2025-09-16T15:06:16.272,-0.85,0.92,-0.55
20201,2025-09-16T15:06:16.282,-0.61,0.92,-0.61
20202,2025-09-16T15:06:16.291,-0.49,0.92,-0.49
20203,2025-09-16T15:06:16.302,-0.31,0.85,-0.49
20204,2025-09-16T15:06:16.312,-0.06,0.79,-0.43
20205,2025-09-16T15:06:16.321,0.0,0.73,-0.31
20206,2025-09-16T15:06:16.330,0.0,0.73,-0.37
20207,2025-09-16T15:06:16.340,-0.12,0.79,-0.31
20208,2025-09-16T15:06:16.350,-0.18,0.73,-0.31
20209,2025-09-16T15:06:16.360,-0.31,0.73,-0.31
20210,2025-09-16T15:06:16.370,-0.37,0.73,-0.31
20211,2025-09-16T15:06:16.380,-0.49,0.85,-0.37
20212,2025-09-16T15:06:16.390,-0.67,0.85,-0.43
20213,2025-09-16T15:06:16.400,-0.55,0.85,-0.43
20214,2025-09-16T15:06:16.409,-0.37,0.79,-0.43
20215,2025-09-16T15:06:16.419,-0.49,0.85,-0.43
20216,2025-09-16T15:06:16.428,-0.18,0.73,-0.43
20217,2025-09-16T15:06:16.438,-0.37,0.79,-0.49
20218,2025-09-16T15:06:16.448,-0.06,0.73,-0.49
20219,2025-09-16T15:06:16.458,-0.06,0.79,-0.43
20220,2025-09-16T15:06:16.468,0.79,0.67,-0.24
20221,2025-09-16T15:06:16.477,-2.62,1.04,-0.79
20222,2025-09-16T15:06:16.487,-1.89,1.04,-0.43
20223,2025-09-16T15:06:16.497,3.17,0.37,-0.24
20224,2025-09-16T15:06:16.507,-2.81,1.04,-0.49
20225,2025-09-16T15:06:16.516,1.04,0.61,-0.24
20226,2025-09-16T15:06:16.526,1.53,0.55,-0.31
20227,2025-09-16T15:06:16.536,-1.95,0.98,-0.55
20228,2025-09-16T15:06:16.546,0.0,0.79,-0.31
20229,2025-09-16T15:06:16.555,-0.37,0.85,-0.43
20230,2025-09-16T15:06:16.565,-1.59,1.04,-0.49
20231,2025-09-16T15:06:16.575,-0.31,0.85,-0.43
20232,2025-09-16T15:06:16.585,-0.73,0.92,-0.43
20233,2025-09-16T15:06:16.595,-0.31,0.79,-0.43
20234,2025-09-16T15:06:16.604,0.31,0.73,-0.37
20235,2025-09-16T15:06:16.614,-0.24,0.73,-0.37
20236,2025-09-16T15:06:16.624,-0.18,0.73,-0.37
20237,2025-09-16T15:06:16.634,0.12,0.67,-0.37
20238,2025-09-16T15:06:16.644,-0.49,0.73,-0.43
20239,2025-09-16T15:06:16.653,-0.55,0.79,-0.43
20240,2025-09-16T15:06:16.663,-0.24,0.73,-0.37
20241,2025-09-16T15:06:16.672,-0.55,0.79,-0.43
20242,2025-09-16T15:06:16.683,-0.37,0.79,-0.43
20243,2025-09-16T15:06:16.692,-0.31,0.73,-0.37
20244,2025-09-16T15:06:16.702,-0.06,0.79,-0.43
20245,2025-09-16T15:06:16.712,-0.31,0.79,-0.37
20246,2025-09-16T15:06:16.722,-0.24,0.79,-0.37
20247,2025-09-16T15:06:16.732,-0.31,0.79,-0.37
20248,2025-09-16T15:06:16.742,-0.49,0.79,-0.43
20249,2025-09-16T15:06:16.751,-0.49,0.79,-0.37
20250,2025-09-16T15:06:16.761,-0.31,0.79,-0.37
20251,2025-09-16T15:06:16.771,-0.43,0.79,-0.43
20252,2025-09-16T15:06:16.781,-0.37,0.79,-0.37
20253,2025-09-16T15:06:16.791,-0.12,0.73,-0.37
20254,2025-09-16T15:06:16.801,-0.24,0.79,-0.37
20255,2025-09-16T15:06:16.811,-0.37,0.79,-0.37
20256,2025-09-16T15:06:16.820,-0.31,0.79,-0.37
20257,2025-09-16T15:06:16.830,-0.31,0.79,-0.37
20258,2025-09-16T15:06:16.840,-0.49,0.85,-0.37
20259,2025-09-16T15:06:16.850,-0.37,0.85,-0.37
20260,2025-09-16T15:06:16.860,0.0,0.79,-0.43
20261,2025-09-16T15:06:16.870,-0.43,0.85,-0.49
20262,2025-09-16T15:06:16.880,-1.16,0.85,-0.37
20263,2025-09-16T15:06:16.889,0.06,0.79,-0.55
20264,2025-09-16T15:06:16.899,-0.12,0.67,-0.43
20265,2025-09-16T15:06:16.909,-0.55,0.79,-0.55
20266,2025-09-16T15:06:16.919,-0.24,0.73,-0.37
20267,2025-09-16T15:06:16.928,-0.06,0.79,-0.49
20268,2025-09-16T15:06:16.938,-0.49,0.85,-0.43
20269,2025-09-16T15:06:16.948,-0.43,0.85,-0.37
20270,2025-09-16T15:06:16.958,-0.31,0.92,-0.37
20271,2025-09-16T15:06:16.967,-0.49,0.92,-0.37
20272,2025-09-16T15:06:16.977,-0.18,0.85,-0.43
20273,2025-09-16T15:06:16.987,-0.55,0.85,-0.43
20274,2025-09-16T15:06:16.997,-0.49,0.85,-0.43
20275,2025-09-16T15:06:17.008,-0.55,0.85,-0.43
20276,2025-09-16T15:06:17.016,-0.49,0.79,-0.49
20277,2025-09-16T15:06:17.026,-0.49,0.79,-0.43
20278,2025-09-16T15:06:17.036,-0.18,0.73,-0.43
20279,2025-09-16T15:06:17.046,-0.06,0.67,-0.37
20280,2025-09-16T15:06:17.055,0.0,0.67,-0.37
20281,2025-09-16T15:06:17.065,-0.12,0.67,-0.24
20282,2025-09-16T15:06:17.075,-0.12,0.67,-0.18
20283,2025-09-16T15:06:17.085,-0.31,0.73,-0.18
20284,2025-09-16T15:06:17.095,-0.31,0.79,-0.12
20285,2025-09-16T15:06:17.104,-0.37,0.85,-0.12
20286,2025-09-16T15:06:17.114,-0.43,0.92,-0.12
20287,2025-09-16T15:06:17.124,-0.49,0.92,-0.18
20288,2025-09-16T15:06:17.133,-0.31,0.85,-0.18
20289,2025-09-16T15:06:17.143,-0.18,0.79,-0.31
20290,2025-09-16T15:06:17.152,-0.43,0.79,-0.37
20291,2025-09-16T15:06:17.162,-0.24,0.79,-0.43
20292,2025-09-16T15:06:17.172,-0.37,0.79,-0.55
20293,2025-09-16T15:06:17.182,-0.67,0.79,-0.55
20294,2025-09-16T15:06:17.192,-0.67,0.79,-0.61
20295,2025-09-16T15:06:17.202,-0.55,0.85,-0.61
20296,2025-09-16T15:06:17.212,-0.49,0.85,-0.61
20297,2025-09-16T15:06:17.221,-0.43,0.85,-0.49
20298,2025-09-16T15:06:17.231,-0.24,0.92,-0.43
20299,2025-09-16T15:06:17.241,-0.24,0.92,-0.37
20300,2025-09-16T15:06:17.251,-0.24,0.92,-0.31
20301,2025-09-16T15:06:17.261,-0.12,0.85,-0.24
20302,2025-09-16T15:06:17.270,-0.18,0.85,-0.24
20303,2025-09-16T15:06:17.280,-0.37,0.85,-0.24
20304,2025-09-16T15:06:17.290,-0.24,0.79,-0.31
20305,2025-09-16T15:06:17.300,-0.06,0.73,-0.43
20306,2025-09-16T15:06:17.309,0.06,0.79,-0.61
20307,2025-09-16T15:06:17.319,-0.92,0.79,-0.61
20308,2025-09-16T15:06:17.329,-2.01,0.92,-0.61
20309,2025-09-16T15:06:17.339,-0.06,0.73,-0.67
20310,2025-09-16T15:06:17.349,0.37,0.67,-0.73
20311,2025-09-16T15:06:17.358,-1.28,0.92,-0.67
20312,2025-09-16T15:06:17.368,-0.06,0.79,-0.49
20313,2025-09-16T15:06:17.378,-0.31,0.85,-0.55
20314,2025-09-16T15:06:17.388,-0.49,0.92,-0.43
20315,2025-09-16T15:06:17.398,-0.18,0.92,-0.24
20316,2025-09-16T15:06:17.407,-0.12,0.85,-0.24
20317,2025-09-16T15:06:17.417,-0.18,0.85,-0.24
20318,2025-09-16T15:06:17.427,0.12,0.79,-0.18
20319,2025-09-16T15:06:17.436,-0.24,0.85,-0.18
20320,2025-09-16T15:06:17.447,-0.31,0.85,-0.31
20321,2025-09-16T15:06:17.456,-0.55,0.85,-0.37
20322,2025-09-16T15:06:17.466,-0.49,0.85,-0.49
20323,2025-09-16T15:06:17.476,-0.79,0.85,-0.55
20324,2025-09-16T15:06:17.485,-0.67,0.85,-0.61
20325,2025-09-16T15:06:17.495,-0.61,0.85,-0.67
20326,2025-09-16T15:06:17.505,-0.61,0.92,-0.61
20327,2025-09-16T15:06:17.515,-0.37,0.85,-0.61
20328,2025-09-16T15:06:17.525,-0.37,0.92,-0.55
20329,2025-09-16T15:06:17.535,-0.67,0.92,-0.55
20330,2025-09-16T15:06:17.545,-0.24,0.92,-0.49
20331,2025-09-16T15:06:17.555,-0.18,0.79,-0.43
20332,2025-09-16T15:06:17.564,-0.37,0.85,-0.37
20333,2025-09-16T15:06:17.574,-0.18,0.79,-0.31
20334,2025-09-16T15:06:17.584,0.18,0.73,-0.24
20335,2025-09-16T15:06:17.594,-0.12,0.73,-0.31
20336,2025-09-16T15:06:17.603,-0.31,0.79,-0.31
20337,2025-09-16T15:06:17.613,-0.24,0.73,-0.24
20338,2025-09-16T15:06:17.623,-0.37,0.79,-0.31
20339,2025-09-16T15:06:17.633,-0.61,0.85,-0.31
20340,2025-09-16T15:06:17.643,-0.49,0.79,-0.37
20341,2025-09-16T15:06:17.652,-0.37,0.79,-0.37
20342,2025-09-16T15:06:17.662,-0.43,0.85,-0.43
20343,2025-09-16T15:06:17.672,-0.37,0.79,-0.43
20344,2025-09-16T15:06:17.682,-0.31,0.79,-0.49
20345,2025-09-16T15:06:17.691,-0.37,0.73,-0.49
20346,2025-09-16T15:06:17.701,-0.43,0.73,-0.49
20347,2025-09-16T15:06:17.711,-0.24,0.73,-0.55
20348,2025-09-16T15:06:17.721,-0.43,0.73,-0.49
20349,2025-09-16T15:06:17.730,-0.43,0.79,-0.43
20350,2025-09-16T15:06:17.740,-0.18,0.73,-0.43
20351,2025-09-16T15:06:17.750,-0.43,0.79,-0.37
20352,2025-09-16T15:06:17.760,-0.43,0.73,-0.37
20353,2025-09-16T15:06:17.769,-0.12,0.79,-0.31
20354,2025-09-16T15:06:17.779,-0.18,0.79,-0.31
20355,2025-09-16T15:06:17.789,-0.31,0.79,-0.31
20356,2025-09-16T15:06:17.799,-0.24,0.73,-0.31
20357,2025-09-16T15:06:17.809,-0.37,0.79,-0.37
20358,2025-09-16T15:06:17.819,0.06,0.67,-0.31
20359,2025-09-16T15:06:17.828,-0.12,0.67,-0.37
20360,2025-09-16T15:06:17.838,-0.49,0.67,-0.43
20361,2025-09-16T15:06:17.848,-0.37,0.67,-0.43
20362,2025-09-16T15:06:17.857,-0.85,0.79,-0.55
20363,2025-09-16T15:06:17.868,-0.85,0.79,-0.61
20364,2025-09-16T15:06:17.877,-0.31,0.79,-0.43
20365,2025-09-16T15:06:17.887,-0.12,0.79,-0.43
20366,2025-09-16T15:06:17.897,-0.61,0.92,-0.49
20367,2025-09-16T15:06:17.907,-0.06,0.79,-0.43
20368,2025-09-16T15:06:17.917,-0.37,0.79,-0.37
20369,2025-09-16T15:06:17.926,-0.24,0.73,-0.43
20370,2025-09-16T15:06:17.936,-0.37,0.79,-0.43
20371,2025-09-16T15:06:17.946,-0.43,0.79,-0.43
20372,2025-09-16T15:06:17.955,-0.49,0.85,-0.37
20373,2025-09-16T15:06:17.965,0.06,0.79,-0.37
20374,2025-09-16T15:06:17.975,-0.37,0.85,-0.49
20375,2025-09-16T15:06:17.985,-0.43,0.79,-0.43
20376,2025-09-16T15:06:17.995,0.0,0.73,-0.37
20377,2025-09-16T15:06:18.004,-0.79,0.79,-0.55
20378,2025-09-16T15:06:18.014,-1.1,0.85,-0.55
20379,2025-09-16T15:06:18.024,-0.55,0.73,-0.49
20380,2025-09-16T15:06:18.034,-0.85,0.79,-0.55
20381,2025-09-16T15:06:18.044,-0.55,0.73,-0.43
20382,2025-09-16T15:06:18.054,0.24,0.67,-0.31
20383,2025-09-16T15:06:18.063,0.24,0.73,-0.24
20384,2025-09-16T15:06:18.073,0.61,0.73,-0.18
20385,2025-09-16T15:06:18.083,0.12,0.73,-0.24
20386,2025-09-16T15:06:18.093,-0.18,0.79,-0.24
20387,2025-09-16T15:06:18.103,0.0,0.79,-0.31
20388,2025-09-16T15:06:18.112,-1.1,0.92,-0.43
20389,2025-09-16T15:06:18.122,-1.16,0.92,-0.55
20390,2025-09-16T15:06:18.132,-1.4,0.92,-0.55
20391,2025-09-16T15:06:18.142,-0.79,0.85,-0.67
20392,2025-09-16T15:06:18.152,-0.85,0.85,-0.61
20393,2025-09-16T15:06:18.161,0.73,0.61,-0.55
20394,2025-09-16T15:06:18.171,0.24,0.67,-0.55
20395,2025-09-16T15:06:18.182,0.06,0.73,-0.67
20396,2025-09-16T15:06:18.191,-0.43,0.79,-0.61
20397,2025-09-16T15:06:18.201,-1.16,0.85,-0.61
20398,2025-09-16T15:06:18.211,-1.22,0.92,-0.49
20399,2025-09-16T15:06:18.220,-0.73,0.85,-0.37
20400,2025-09-16T15:06:18.231,-0.31,0.85,-0.24
20401,2025-09-16T15:06:18.240,0.43,0.73,-0.12
20402,2025-09-16T15:06:18.250,0.79,0.79,-0.06
20403,2025-09-16T15:06:18.259,0.85,0.67,0.0
20404,2025-09-16T15:06:18.270,-0.37,0.85,-0.18
20405,2025-09-16T15:06:18.279,-0.55,0.85,-0.31
20406,2025-09-16T15:06:18.289,-0.67,0.85,-0.37
20407,2025-09-16T15:06:18.299,-0.61,0.85,-0.43
20408,2025-09-16T15:06:18.308,-1.28,0.92,-0.55
20409,2025-09-16T15:06:18.318,-0.55,0.85,-0.67
20410,2025-09-16T15:06:18.328,-0.79,0.85,-0.67
20411,2025-09-16T15:06:18.339,-0.31,0.79,-0.73
20412,2025-09-16T15:06:18.348,-0.37,0.79,-0.61
20413,2025-09-16T15:06:18.357,0.12,0.79,-0.85
20414,2025-09-16T15:06:18.367,-0.98,0.92,-0.67
20415,2025-09-16T15:06:18.377,0.12,0.79,-0.61
20416,2025-09-16T15:06:18.386,-1.16,0.98,-0.49
20417,2025-09-16T15:06:18.397,0.24,0.79,-0.37
20418,2025-09-16T15:06:18.407,-0.31,0.79,-0.24
20419,2025-09-16T15:06:18.416,-0.18,0.73,-0.24
20420,2025-09-16T15:06:18.426,0.37,0.67,-0.12
20421,2025-09-16T15:06:18.436,-0.06,0.73,-0.18
20422,2025-09-16T15:06:18.445,-0.37,0.73,-0.12
20423,2025-09-16T15:06:18.455,-0.18,0.73,-0.24
20424,2025-09-16T15:06:18.465,-0.85,0.85,-0.31
20425,2025-09-16T15:06:18.474,-0.55,0.85,-0.49
20426,2025-09-16T15:06:18.485,-0.98,0.85,-0.55
20427,2025-09-16T15:06:18.494,-2.62,1.04,-0.79
20428,2025-09-16T15:06:18.504,-39.0,6.53,-3.78
20429,2025-09-16T15:06:18.514,-46.45,8.67,-4.46
20430,2025-09-16T15:06:18.524,-47.91,7.63,-5.07
20431,2025-09-16T15:06:18.534,-46.63,7.87,-4.82
20432,2025-09-16T15:06:18.543,-33.69,5.92,-3.54
20433,2025-09-16T15:06:18.553,-9.7,2.26,-1.28
20434,2025-09-16T15:06:18.563,20.32,0.31,2.14
20435,2025-09-16T15:06:18.572,56.64,1.28,7.93
20436,2025-09-16T15:06:18.582,95.03,5.37,19.1
20437,2025-09-16T15:06:18.592,108.58,4.21,31.8
20438,2025-09-16T15:06:18.602,110.41,1.4,35.64
20439,2025-09-16T15:06:18.612,90.09,0.06,26.73
20440,2025-09-16T15:06:18.621,15.63,-11.35,13.49
20441,2025-09-16T15:06:18.631,-68.79,-14.83,6.35
20442,2025-09-16T15:06:18.641,-29.3,-1.77,0.43
20443,2025-09-16T15:06:18.651,-13.43,-0.18,-1.22
20444,2025-09-16T15:06:18.661,3.78,-0.61,2.5
20445,2025-09-16T15:06:18.670,8.12,0.43,3.91
20446,2025-09-16T15:06:18.681,-2.2,1.04,0.12
20447,2025-09-16T15:06:18.690,-6.41,1.34,-0.98
20448,2025-09-16T15:06:18.700,1.46,0.55,-0.31
20449,2025-09-16T15:06:18.710,0.98,0.61,-0.31
20450,2025-09-16T15:06:18.719,-1.89,0.92,-0.43
20451,2025-09-16T15:06:18.729,0.55,0.67,-0.18
20452,2025-09-16T15:06:18.739,0.98,0.67,-0.12
20453,2025-09-16T15:06:18.749,0.06,0.79,-0.24
20454,2025-09-16T15:06:18.759,0.67,0.73,-0.24
20455,2025-09-16T15:06:18.768,0.98,0.67,-0.49
20456,2025-09-16T15:06:18.778,-0.79,0.61,-1.95
20457,2025-09-16T15:06:18.788,-5.92,0.61,-4.52
20458,2025-09-16T15:06:18.798,-11.6,1.04,-5.92
20459,2025-09-16T15:06:18.807,-7.69,0.61,-5.49
20460,2025-09-16T15:06:18.817,-7.26,0.79,-5.07
20461,2025-09-16T15:06:18.826,-6.23,1.22,-4.33
20462,2025-09-16T15:06:18.837,-3.97,1.28,-3.54
20463,2025-09-16T15:06:18.847,-3.91,1.22,-3.11
20464,2025-09-16T15:06:18.856,-2.38,1.04,-2.99
20465,2025-09-16T15:06:18.866,-2.69,0.98,-2.87
20466,2025-09-16T15:06:18.875,-3.05,1.04,-2.93
20467,2025-09-16T15:06:18.885,-3.3,1.1,-2.87
20468,2025-09-16T15:06:18.895,-3.17,1.1,-2.69
20469,2025-09-16T15:06:18.905,-3.11,1.1,-2.32
20470,2025-09-16T15:06:18.915,-2.62,1.1,-1.89
20471,2025-09-16T15:06:18.926,-2.01,1.04,-1.22
20472,2025-09-16T15:06:18.935,-1.16,0.92,-0.55
20473,2025-09-16T15:06:18.945,0.24,0.79,0.49
20474,2025-09-16T15:06:18.955,1.89,0.61,1.59
20475,2025-09-16T15:06:18.965,3.3,0.43,2.32
20476,2025-09-16T15:06:18.975,3.6,0.37,2.56
20477,2025-09-16T15:06:18.984,3.3,0.37,2.2
20478,2025-09-16T15:06:18.994,2.26,0.49,1.34
20479,2025-09-16T15:06:19.004,1.16,0.61,0.49
20480,2025-09-16T15:06:19.014,0.49,0.67,-0.43
20481,2025-09-16T15:06:19.024,-1.22,0.85,-1.34
20482,2025-09-16T15:06:19.033,-2.38,0.98,-2.01
20483,2025-09-16T15:06:19.042,-3.3,1.04,-2.32
20484,2025-09-16T15:06:19.053,-3.3,1.04,-2.26
20485,2025-09-16T15:06:19.062,-2.87,1.04,-1.83
20486,2025-09-16T15:06:19.073,-1.89,0.92,-1.16
20487,2025-09-16T15:06:19.082,-0.67,0.79,-0.37
20488,2025-09-16T15:06:19.092,0.79,0.67,0.61
20489,2025-09-16T15:06:19.102,2.44,0.49,1.4
20490,2025-09-16T15:06:19.111,3.05,0.43,1.89
20491,2025-09-16T15:06:19.121,3.05,0.43,1.95
20492,2025-09-16T15:06:19.131,2.26,0.49,1.53
20493,2025-09-16T15:06:19.141,1.22,0.61,0.98
20494,2025-09-16T15:06:19.150,0.67,0.73,0.0
20495,2025-09-16T15:06:19.160,-1.65,0.92,-0.61
20496,2025-09-16T15:06:19.170,-0.98,0.85,-0.92
20497,2025-09-16T15:06:19.180,-0.92,0.85,-1.28
20498,2025-09-16T15:06:19.190,-2.08,0.98,-1.53
20499,2025-09-16T15:06:19.200,-1.77,0.98,-1.65
