sample,timestamp,gyro_x,gyro_y,gyro_z
22000,2025-09-16T15:06:33.895,-0.37,0.79,-0.37
22001,2025-09-16T15:06:33.904,-0.37,0.79,-0.37
22002,2025-09-16T15:06:33.914,-0.24,0.79,-0.37
22003,2025-09-16T15:06:33.924,-0.06,0.79,-0.37
22004,2025-09-16T15:06:33.933,-0.24,0.79,-0.31
22005,2025-09-16T15:06:33.943,-0.31,0.79,-0.37
22006,2025-09-16T15:06:33.953,-0.37,0.85,-0.43
22007,2025-09-16T15:06:33.963,-0.49,0.85,-0.43
22008,2025-09-16T15:06:33.973,-0.67,0.85,-0.43
22009,2025-09-16T15:06:33.982,-0.18,0.79,-0.43
22010,2025-09-16T15:06:33.992,-0.55,0.79,-0.43
22011,2025-09-16T15:06:34.002,-0.24,0.85,-0.43
22012,2025-09-16T15:06:34.012,0.0,0.79,-0.37
22013,2025-09-16T15:06:34.022,-0.24,0.79,-0.43
22014,2025-09-16T15:06:34.032,-0.37,0.85,-0.37
22015,2025-09-16T15:06:34.041,-0.31,0.85,-0.37
22016,2025-09-16T15:06:34.053,-0.49,0.79,-0.37
22017,2025-09-16T15:06:34.061,-0.55,0.79,-0.43
22018,2025-09-16T15:06:34.071,-0.49,0.79,-0.37
22019,2025-09-16T15:06:34.081,-0.31,0.79,-0.37
22020,2025-09-16T15:06:34.091,-0.37,0.79,-0.37
22021,2025-09-16T15:06:34.100,-0.24,0.79,-0.37
22022,2025-09-16T15:06:34.110,-0.24,0.79,-0.31
22023,2025-09-16T15:06:34.119,-0.24,0.79,-0.37
22024,2025-09-16T15:06:34.129,-0.37,0.79,-0.37
22025,2025-09-16T15:06:34.140,-0.31,0.85,-0.37
22026,2025-09-16T15:06:34.150,-0.37,0.85,-0.43
22027,2025-09-16T15:06:34.159,-0.49,0.85,-0.43
22028,2025-09-16T15:06:34.169,-0.43,0.85,-0.43
22029,2025-09-16T15:06:34.178,-0.37,0.79,-0.43
22030,2025-09-16T15:06:34.189,-0.37,0.85,-0.43
22031,2025-09-16T15:06:34.199,-0.31,0.85,-0.43
22032,2025-09-16T15:06:34.208,-0.31,0.79,-0.37
22033,2025-09-16T15:06:34.218,-0.37,0.79,-0.37
22034,2025-09-16T15:06:34.228,-0.31,0.79,-0.37
22035,2025-09-16T15:06:34.237,-0.24,0.79,-0.37
22036,2025-09-16T15:06:34.247,-0.31,0.79,-0.37
22037,2025-09-16T15:06:34.257,-0.31,0.79,-0.37
22038,2025-09-16T15:06:34.267,-0.31,0.85,-0.37
22039,2025-09-16T15:06:34.276,-0.37,0.79,-0.43
22040,2025-09-16T15:06:34.286,-0.43,0.79,-0.37
22041,2025-09-16T15:06:34.296,-0.43,0.85,-0.37
22042,2025-09-16T15:06:34.306,-0.37,0.79,-0.37
22043,2025-09-16T15:06:34.316,-0.31,0.79,-0.43
22044,2025-09-16T15:06:34.325,-0.37,0.79,-0.37
22045,2025-09-16T15:06:34.335,-0.24,0.79,-0.37
22046,2025-09-16T15:06:34.345,-0.31,0.79,-0.43
22047,2025-09-16T15:06:34.354,-0.37,0.79,-0.43
22048,2025-09-16T15:06:34.364,-0.37,0.79,-0.43
22049,2025-09-16T15:06:34.374,-0.37,0.79,-0.37
22050,2025-09-16T15:06:34.384,-0.31,0.79,-0.37
22051,2025-09-16T15:06:34.393,-0.43,0.79,-0.37
22052,2025-09-16T15:06:34.403,-0.37,0.79,-0.37
22053,2025-09-16T15:06:34.413,-0.31,0.79,-0.43
22054,2025-09-16T15:06:34.423,-0.31,0.79,-0.37
22055,2025-09-16T15:06:34.432,-0.24,0.79,-0.43
22056,2025-09-16T15:06:34.442,-0.31,0.85,-0.37
22057,2025-09-16T15:06:34.452,-0.31,0.79,-0.37
22058,2025-09-16T15:06:34.462,-0.31,0.79,-0.37
22059,2025-09-16T15:06:34.471,-0.37,0.79,-0.37
22060,2025-09-16T15:06:34.481,-0.37,0.79,-0.37
22061,2025-09-16T15:06:34.491,-0.43,0.79,-0.43
22062,2025-09-16T15:06:34.501,-0.37,0.79,-0.43
22063,2025-09-16T15:06:34.511,-0.37,0.79,-0.37
22064,2025-09-16T15:06:34.521,-0.31,0.85,-0.43
22065,2025-09-16T15:06:34.530,-0.37,0.79,-0.37
22066,2025-09-16T15:06:34.540,-0.31,0.79,-0.43
22067,2025-09-16T15:06:34.550,-0.37,0.79,-0.37
22068,2025-09-16T15:06:34.560,-0.37,0.79,-0.37
22069,2025-09-16T15:06:34.570,-0.37,0.79,-0.31
22070,2025-09-16T15:06:34.579,-0.37,0.79,-0.37
22071,2025-09-16T15:06:34.589,-0.37,0.79,-0.37
22072,2025-09-16T15:06:34.599,-0.37,0.79,-0.37
22073,2025-09-16T15:06:34.609,-0.31,0.79,-0.43
22074,2025-09-16T15:06:34.619,-0.31,0.79,-0.37
22075,2025-09-16T15:06:34.628,-0.31,0.85,-0.37
22076,2025-09-16T15:06:34.638,-0.37,0.79,-0.43
22077,2025-09-16T15:06:34.649,-0.37,0.79,-0.43
22078,2025-09-16T15:06:34.658,-0.37,0.79,-0.37
22079,2025-09-16T15:06:34.668,-0.37,0.79,-0.37
22080,2025-09-16T15:06:34.678,-0.37,0.79,-0.37
22081,2025-09-16T15:06:34.687,-0.37,0.85,-0.37
22082,2025-09-16T15:06:34.697,-0.37,0.85,-0.37
22083,2025-09-16T15:06:34.707,-0.37,0.85,-0.43
22084,2025-09-16T15:06:34.717,-0.31,0.85,-0.37
22085,2025-09-16T15:06:34.727,-0.31,0.79,-0.37
22086,2025-09-16T15:06:34.737,-0.37,0.79,-0.37
22087,2025-09-16T15:06:34.747,-0.37,0.79,-0.43
22088,2025-09-16T15:06:34.757,-0.37,0.79,-0.43
22089,2025-09-16T15:06:34.766,-0.37,0.79,-0.43
22090,2025-09-16T15:06:34.776,-0.43,0.79,-0.43
22091,2025-09-16T15:06:34.786,-0.37,0.79,-0.43
22092,2025-09-16T15:06:34.796,-0.31,0.79,-0.37
22093,2025-09-16T15:06:34.805,-0.31,0.85,-0.37
22094,2025-09-16T15:06:34.814,-0.18,0.79,-0.37
22095,2025-09-16T15:06:34.825,-0.24,0.79,-0.37
22096,2025-09-16T15:06:34.834,-0.31,0.79,-0.37
22097,2025-09-16T15:06:34.844,-0.43,0.79,-0.37
22098,2025-09-16T15:06:34.855,-0.37,0.79,-0.37
22099,2025-09-16T15:06:34.864,-0.43,0.79,-0.37
22100,2025-09-16T15:06:34.874,-0.43,0.85,-0.37
22101,2025-09-16T15:06:34.884,-0.43,0.79,-0.37
22102,2025-09-16T15:06:34.893,-0.31,0.79,-0.43
22103,2025-09-16T15:06:34.903,-0.37,0.79,-0.43
22104,2025-09-16T15:06:34.913,-0.31,0.79,-0.37
22105,2025-09-16T15:06:34.923,-0.31,0.79,-0.37
22106,2025-09-16T15:06:34.933,-0.31,0.79,-0.43
22107,2025-09-16T15:06:34.942,-0.37,0.79,-0.37
22108,2025-09-16T15:06:34.952,-0.37,0.79,-0.37
22109,2025-09-16T15:06:34.962,-0.43,0.79,-0.43
22110,2025-09-16T15:06:34.972,-0.37,0.79,-0.37
22111,2025-09-16T15:06:34.981,-0.37,0.79,-0.37
22112,2025-09-16T15:06:34.991,-0.31,0.79,-0.37
22113,2025-09-16T15:06:35.001,-0.31,0.79,-0.37
22114,2025-09-16T15:06:35.011,-0.24,0.79,-0.37
22115,2025-09-16T15:06:35.021,-0.31,0.79,-0.37
22116,2025-09-16T15:06:35.030,-0.31,0.79,-0.37
22117,2025-09-16T15:06:35.040,-0.37,0.79,-0.43
22118,2025-09-16T15:06:35.050,-0.43,0.79,-0.43
22119,2025-09-16T15:06:35.060,-0.43,0.79,-0.43
22120,2025-09-16T15:06:35.069,-0.43,0.79,-0.43
22121,2025-09-16T15:06:35.080,-0.49,0.85,-0.43
22122,2025-09-16T15:06:35.090,-0.43,0.85,-0.43
22123,2025-09-16T15:06:35.099,-0.31,0.79,-0.43
22124,2025-09-16T15:06:35.109,-0.31,0.79,-0.43
22125,2025-09-16T15:06:35.120,-0.24,0.79,-0.37
22126,2025-09-16T15:06:35.128,-0.24,0.85,-0.37
22127,2025-09-16T15:06:35.138,-0.31,0.79,-0.37
22128,2025-09-16T15:06:35.148,-0.43,0.79,-0.37
22129,2025-09-16T15:06:35.158,-0.37,0.85,-0.37
22130,2025-09-16T15:06:35.167,-0.37,0.79,-0.37
22131,2025-09-16T15:06:35.177,-0.37,0.79,-0.37
22132,2025-09-16T15:06:35.187,-0.37,0.79,-0.31
22133,2025-09-16T15:06:35.196,-0.31,0.79,-0.37
22134,2025-09-16T15:06:35.207,-0.31,0.79,-0.37
22135,2025-09-16T15:06:35.217,-0.31,0.79,-0.37
22136,2025-09-16T15:06:35.226,-0.37,0.79,-0.37
22137,2025-09-16T15:06:35.236,-0.43,0.79,-0.43
22138,2025-09-16T15:06:35.245,-0.43,0.85,-0.43
22139,2025-09-16T15:06:35.255,-0.37,0.85,-0.43
22140,2025-09-16T15:06:35.264,-0.37,0.79,-0.37
22141,2025-09-16T15:06:35.274,-0.37,0.79,-0.43
22142,2025-09-16T15:06:35.284,-0.31,0.79,-0.43
22143,2025-09-16T15:06:35.294,-0.24,0.79,-0.43
22144,2025-09-16T15:06:35.304,-0.31,0.79,-0.37
22145,2025-09-16T15:06:35.313,-0.24,0.79,-0.37
22146,2025-09-16T15:06:35.323,-0.37,0.85,-0.37
22147,2025-09-16T15:06:35.333,-0.31,0.79,-0.43
22148,2025-09-16T15:06:35.344,-0.37,0.73,-0.37
22149,2025-09-16T15:06:35.353,-0.31,0.79,-0.37
22150,2025-09-16T15:06:35.363,-0.37,0.79,-0.37
22151,2025-09-16T15:06:35.373,-0.31,0.79,-0.37
22152,2025-09-16T15:06:35.383,-0.31,0.79,-0.37
22153,2025-09-16T15:06:35.393,-0.37,0.79,-0.37
22154,2025-09-16T15:06:35.401,-0.37,0.79,-0.43
22155,2025-09-16T15:06:35.412,-0.37,0.79,-0.37
22156,2025-09-16T15:06:35.422,-0.43,0.79,-0.37
22157,2025-09-16T15:06:35.431,-0.49,0.79,-0.43
22158,2025-09-16T15:06:35.441,-0.37,0.79,-0.43
22159,2025-09-16T15:06:35.451,-0.37,0.79,-0.43
22160,2025-09-16T15:06:35.460,-0.31,0.79,-0.43
22161,2025-09-16T15:06:35.471,-0.31,0.79,-0.37
22162,2025-09-16T15:06:35.480,-0.24,0.79,-0.43
22163,2025-09-16T15:06:35.490,-0.31,0.79,-0.43
22164,2025-09-16T15:06:35.500,-0.31,0.79,-0.37
22165,2025-09-16T15:06:35.510,-0.31,0.79,-0.37
22166,2025-09-16T15:06:35.519,-0.37,0.79,-0.37
22167,2025-09-16T15:06:35.529,-0.43,0.85,-0.37
22168,2025-09-16T15:06:35.539,-0.43,0.85,-0.43
22169,2025-09-16T15:06:35.549,-0.37,0.85,-0.37
22170,2025-09-16T15:06:35.558,-0.43,0.85,-0.37
22171,2025-09-16T15:06:35.568,-0.43,0.79,-0.37
22172,2025-09-16T15:06:35.578,-0.31,0.79,-0.43
22173,2025-09-16T15:06:35.586,-0.37,0.79,-0.37
22174,2025-09-16T15:06:35.598,-0.31,0.79,-0.37
22175,2025-09-16T15:06:35.607,-0.37,0.79,-0.37
22176,2025-09-16T15:06:35.617,-0.37,0.79,-0.37
22177,2025-09-16T15:06:35.627,-0.37,0.79,-0.37
22178,2025-09-16T15:06:35.637,-0.31,0.79,-0.37
22179,2025-09-16T15:06:35.647,-0.37,0.79,-0.37
22180,2025-09-16T15:06:35.657,-0.31,0.79,-0.37
22181,2025-09-16T15:06:35.667,-0.37,0.79,-0.37
22182,2025-09-16T15:06:35.677,-0.31,0.85,-0.37
22183,2025-09-16T15:06:35.686,-0.31,0.79,-0.37
22184,2025-09-16T15:06:35.696,-0.37,0.79,-0.37
22185,2025-09-16T15:06:35.706,-0.37,0.85,-0.37
22186,2025-09-16T15:06:35.716,-0.31,0.79,-0.37
22187,2025-09-16T15:06:35.726,-0.37,0.79,-0.37
22188,2025-09-16T15:06:35.735,-0.37,0.79,-0.43
22189,2025-09-16T15:06:35.745,-0.43,0.79,-0.37
22190,2025-09-16T15:06:35.755,-0.37,0.85,-0.37
22191,2025-09-16T15:06:35.764,-0.31,0.85,-0.43
22192,2025-09-16T15:06:35.774,-0.37,0.79,-0.37
22193,2025-09-16T15:06:35.784,-0.37,0.79,-0.37
22194,2025-09-16T15:06:35.793,-0.37,0.79,-0.43
22195,2025-09-16T15:06:35.803,-0.37,0.85,-0.43
22196,2025-09-16T15:06:35.814,-0.31,0.79,-0.43
22197,2025-09-16T15:06:35.823,-0.37,0.73,-0.37
22198,2025-09-16T15:06:35.833,-0.37,0.79,-0.43
22199,2025-09-16T15:06:35.842,-0.37,0.79,-0.37
22200,2025-09-16T15:06:35.852,-0.37,0.79,-0.43
22201,2025-09-16T15:06:35.862,-0.37,0.79,-0.37
22202,2025-09-16T15:06:35.872,-0.37,0.79,-0.37
22203,2025-09-16T15:06:35.882,-0.37,0.79,-0.37
22204,2025-09-16T15:06:35.891,-0.31,0.79,-0.37
22205,2025-09-16T15:06:35.901,-0.37,0.79,-0.43
22206,2025-09-16T15:06:35.911,-0.37,0.79,-0.37
22207,2025-09-16T15:06:35.921,-0.37,0.79,-0.43
22208,2025-09-16T15:06:35.930,-0.37,0.79,-0.37
22209,2025-09-16T15:06:35.940,-0.43,0.79,-0.43
22210,2025-09-16T15:06:35.950,-0.37,0.79,-0.37
22211,2025-09-16T15:06:35.960,-0.31,0.79,-0.37
22212,2025-09-16T15:06:35.970,-0.37,0.79,-0.37
22213,2025-09-16T15:06:35.980,-0.37,0.85,-0.37
22214,2025-09-16T15:06:35.989,-0.31,0.79,-0.37
22215,2025-09-16T15:06:35.999,-0.37,0.85,-0.43
22216,2025-09-16T15:06:36.009,-0.37,0.79,-0.43
22217,2025-09-16T15:06:36.019,-0.31,0.79,-0.37
22218,2025-09-16T15:06:36.029,-0.43,0.79,-0.37
22219,2025-09-16T15:06:36.038,-0.43,0.85,-0.37
22220,2025-09-16T15:06:36.048,-0.37,0.79,-0.37
22221,2025-09-16T15:06:36.058,-0.37,0.79,-0.37
22222,2025-09-16T15:06:36.067,-0.31,0.79,-0.37
22223,2025-09-16T15:06:36.077,-0.31,0.79,-0.37
22224,2025-09-16T15:06:36.087,-0.31,0.79,-0.37
22225,2025-09-16T15:06:36.097,-0.37,0.79,-0.37
22226,2025-09-16T15:06:36.107,-0.37,0.79,-0.37
22227,2025-09-16T15:06:36.117,-0.37,0.79,-0.37
22228,2025-09-16T15:06:36.126,-0.43,0.79,-0.43
22229,2025-09-16T15:06:36.136,-0.43,0.85,-0.43
22230,2025-09-16T15:06:36.147,-0.37,0.79,-0.43
22231,2025-09-16T15:06:36.157,-0.37,0.79,-0.37
22232,2025-09-16T15:06:36.166,-0.37,0.79,-0.37
22233,2025-09-16T15:06:36.176,-0.37,0.79,-0.37
22234,2025-09-16T15:06:36.186,-0.31,0.79,-0.37
22235,2025-09-16T15:06:36.196,-0.37,0.79,-0.37
22236,2025-09-16T15:06:36.206,-0.24,0.79,-0.43
22237,2025-09-16T15:06:36.215,-0.37,0.79,-0.37
22238,2025-09-16T15:06:36.225,-0.24,0.79,-0.31
22239,2025-09-16T15:06:36.235,-0.18,0.79,-0.37
22240,2025-09-16T15:06:36.244,-0.24,0.79,-0.37
22241,2025-09-16T15:06:36.254,-0.31,0.79,-0.37
22242,2025-09-16T15:06:36.264,-0.37,0.79,-0.37
22243,2025-09-16T15:06:36.274,-0.43,0.79,-0.43
22244,2025-09-16T15:06:36.283,-0.49,0.79,-0.43
22245,2025-09-16T15:06:36.293,-0.49,0.79,-0.43
22246,2025-09-16T15:06:36.303,-0.43,0.79,-0.43
22247,2025-09-16T15:06:36.313,-0.37,0.79,-0.43
22248,2025-09-16T15:06:36.323,-0.24,0.79,-0.43
22249,2025-09-16T15:06:36.332,-0.18,0.79,-0.43
22250,2025-09-16T15:06:36.343,-0.18,0.79,-0.43
22251,2025-09-16T15:06:36.352,-0.37,0.85,-0.37
22252,2025-09-16T15:06:36.362,-0.43,0.79,-0.37
22253,2025-09-16T15:06:36.372,-0.49,0.79,-0.37
22254,2025-09-16T15:06:36.381,-0.43,0.79,-0.37
22255,2025-09-16T15:06:36.391,-0.31,0.79,-0.37
22256,2025-09-16T15:06:36.401,-0.31,0.79,-0.37
22257,2025-09-16T15:06:36.411,-0.24,0.79,-0.37
22258,2025-09-16T15:06:36.421,-0.31,0.79,-0.37
22259,2025-09-16T15:06:36.431,-0.31,0.79,-0.37
22260,2025-09-16T15:06:36.440,-0.24,0.79,-0.37
22261,2025-09-16T15:06:36.450,-0.49,0.79,-0.37
22262,2025-09-16T15:06:36.460,-0.37,0.79,-0.37
22263,2025-09-16T15:06:36.470,-0.37,0.79,-0.37
22264,2025-09-16T15:06:36.480,-0.55,0.79,-0.43
22265,2025-09-16T15:06:36.489,-0.49,0.79,-0.37
22266,2025-09-16T15:06:36.499,-0.37,0.79,-0.37
22267,2025-09-16T15:06:36.509,-0.31,0.79,-0.37
22268,2025-09-16T15:06:36.518,-0.12,0.79,-0.31
22269,2025-09-16T15:06:36.528,-0.12,0.85,-0.31
22270,2025-09-16T15:06:36.538,-0.24,0.85,-0.43
22271,2025-09-16T15:06:36.548,-0.43,0.92,-0.43
22272,2025-09-16T15:06:36.558,-0.49,0.92,-0.49
22273,2025-09-16T15:06:36.567,-0.67,0.85,-0.49
22274,2025-09-16T15:06:36.577,-0.55,0.85,-0.49
22275,2025-09-16T15:06:36.587,-0.43,0.79,-0.49
22276,2025-09-16T15:06:36.597,-0.37,0.79,-0.49
22277,2025-09-16T15:06:36.606,-0.18,0.79,-0.43
22278,2025-09-16T15:06:36.616,-0.12,0.79,-0.43
22279,2025-09-16T15:06:36.626,-0.18,0.79,-0.43
22280,2025-09-16T15:06:36.636,-0.31,0.79,-0.37
22281,2025-09-16T15:06:36.645,-0.31,0.73,-0.37
22282,2025-09-16T15:06:36.655,-0.37,0.79,-0.37
22283,2025-09-16T15:06:36.665,-0.43,0.85,-0.37
22284,2025-09-16T15:06:36.675,-0.37,0.85,-0.31
22285,2025-09-16T15:06:36.685,-0.37,0.85,-0.24
22286,2025-09-16T15:06:36.694,-0.31,0.85,-0.31
22287,2025-09-16T15:06:36.704,-0.24,0.79,-0.31
22288,2025-09-16T15:06:36.714,-0.37,0.79,-0.37
22289,2025-09-16T15:06:36.724,-0.43,0.85,-0.37
22290,2025-09-16T15:06:36.733,-0.43,0.85,-0.43
22291,2025-09-16T15:06:36.743,-0.49,0.85,-0.49
22292,2025-09-16T15:06:36.753,-0.43,0.85,-0.49
22293,2025-09-16T15:06:36.763,-0.31,0.85,-0.49
22294,2025-09-16T15:06:36.772,-0.37,0.79,-0.49
22295,2025-09-16T15:06:36.783,-0.31,0.79,-0.43
22296,2025-09-16T15:06:36.793,-0.31,0.79,-0.49
22297,2025-09-16T15:06:36.803,-0.43,0.79,-0.43
22298,2025-09-16T15:06:36.812,-0.37,0.79,-0.43
22299,2025-09-16T15:06:36.822,-0.37,0.79,-0.31
22300,2025-09-16T15:06:36.832,-0.24,0.79,-0.37
22301,2025-09-16T15:06:36.841,-0.18,0.73,-0.31
22302,2025-09-16T15:06:36.851,-0.18,0.79,-0.31
22303,2025-09-16T15:06:36.861,-0.31,0.79,-0.31
22304,2025-09-16T15:06:36.872,-0.31,0.79,-0.31
22305,2025-09-16T15:06:36.881,-0.43,0.79,-0.31
22306,2025-09-16T15:06:36.891,-0.49,0.79,-0.31
22307,2025-09-16T15:06:36.900,-0.43,0.79,-0.37
22308,2025-09-16T15:06:36.910,-0.43,0.79,-0.37
22309,2025-09-16T15:06:36.920,-0.37,0.79,-0.37
22310,2025-09-16T15:06:36.930,-0.24,0.79,-0.37
22311,2025-09-16T15:06:36.940,-0.24,0.85,-0.37
22312,2025-09-16T15:06:36.949,-0.18,0.79,-0.43
22313,2025-09-16T15:06:36.959,-0.24,0.79,-0.43
22314,2025-09-16T15:06:36.969,-0.37,0.85,-0.37
22315,2025-09-16T15:06:36.978,-0.37,0.85,-0.37
22316,2025-09-16T15:06:36.989,-0.37,0.85,-0.37
22317,2025-09-16T15:06:36.999,-0.43,0.85,-0.43
22318,2025-09-16T15:06:37.008,-0.43,0.85,-0.37
22319,2025-09-16T15:06:37.018,-0.37,0.79,-0.37
22320,2025-09-16T15:06:37.028,-0.37,0.79,-0.37
22321,2025-09-16T15:06:37.037,-0.37,0.79,-0.37
22322,2025-09-16T15:06:37.047,-0.31,0.79,-0.43
22323,2025-09-16T15:06:37.057,-0.31,0.79,-0.43
22324,2025-09-16T15:06:37.067,-0.31,0.79,-0.43
22325,2025-09-16T15:06:37.077,-0.37,0.79,-0.37
22326,2025-09-16T15:06:37.087,-0.37,0.73,-0.37
22327,2025-09-16T15:06:37.096,-0.37,0.79,-0.37
22328,2025-09-16T15:06:37.106,-0.31,0.79,-0.31
22329,2025-09-16T15:06:37.116,-0.31,0.79,-0.37
22330,2025-09-16T15:06:37.125,-0.31,0.79,-0.37
22331,2025-09-16T15:06:37.135,-0.24,0.79,-0.37
22332,2025-09-16T15:06:37.145,-0.24,0.79,-0.37
22333,2025-09-16T15:06:37.155,-0.37,0.79,-0.37
22334,2025-09-16T15:06:37.165,-0.43,0.79,-0.37
22335,2025-09-16T15:06:37.175,-0.49,0.79,-0.43
22336,2025-09-16T15:06:37.184,-0.43,0.85,-0.43
22337,2025-09-16T15:06:37.194,-0.43,0.85,-0.43
22338,2025-09-16T15:06:37.204,-0.37,0.79,-0.37
22339,2025-09-16T15:06:37.214,-0.24,0.79,-0.37
22340,2025-09-16T15:06:37.223,-0.18,0.79,-0.43
22341,2025-09-16T15:06:37.233,-0.24,0.73,-0.37
22342,2025-09-16T15:06:37.243,-0.24,0.73,-0.37
22343,2025-09-16T15:06:37.252,-0.31,0.85,-0.43
22344,2025-09-16T15:06:37.262,-0.43,0.85,-0.43
22345,2025-09-16T15:06:37.272,-0.43,0.79,-0.37
22346,2025-09-16T15:06:37.282,-0.43,0.79,-0.37
22347,2025-09-16T15:06:37.292,-0.31,0.73,-0.37
22348,2025-09-16T15:06:37.301,-0.37,0.79,-0.37
22349,2025-09-16T15:06:37.312,-0.37,0.79,-0.37
22350,2025-09-16T15:06:37.322,-0.31,0.79,-0.37
22351,2025-09-16T15:06:37.332,-0.24,0.73,-0.37
22352,2025-09-16T15:06:37.340,-0.37,0.79,-0.37
22353,2025-09-16T15:06:37.350,-0.31,0.79,-0.37
22354,2025-09-16T15:06:37.360,-0.31,0.79,-0.37
22355,2025-09-16T15:06:37.370,-0.37,0.85,-0.37
22356,2025-09-16T15:06:37.380,-0.31,0.85,-0.37
22357,2025-09-16T15:06:37.389,-0.37,0.85,-0.43
22358,2025-09-16T15:06:37.399,-0.43,0.79,-0.49
22359,2025-09-16T15:06:37.409,-0.43,0.85,-0.49
22360,2025-09-16T15:06:37.419,-0.37,0.79,-0.43
22361,2025-09-16T15:06:37.429,-0.37,0.79,-0.43
22362,2025-09-16T15:06:37.439,-0.37,0.79,-0.43
22363,2025-09-16T15:06:37.449,-0.24,0.79,-0.43
22364,2025-09-16T15:06:37.459,-0.18,0.85,-0.37
22365,2025-09-16T15:06:37.468,-0.31,0.79,-0.31
22366,2025-09-16T15:06:37.478,-0.37,0.79,-0.31
22367,2025-09-16T15:06:37.488,-0.37,0.79,-0.37
22368,2025-09-16T15:06:37.498,-0.43,0.85,-0.37
22369,2025-09-16T15:06:37.508,-0.37,0.79,-0.43
22370,2025-09-16T15:06:37.517,-0.24,0.85,-0.43
22371,2025-09-16T15:06:37.527,-0.31,0.85,-0.43
22372,2025-09-16T15:06:37.537,-0.37,0.85,-0.43
22373,2025-09-16T15:06:37.546,-0.37,0.79,-0.49
22374,2025-09-16T15:06:37.556,-0.43,0.79,-0.49
22375,2025-09-16T15:06:37.566,-0.43,0.79,-0.43
22376,2025-09-16T15:06:37.575,-0.43,0.73,-0.43
22377,2025-09-16T15:06:37.585,-0.37,0.73,-0.37
22378,2025-09-16T15:06:37.595,-0.31,0.79,-0.37
22379,2025-09-16T15:06:37.605,-0.24,0.79,-0.37
22380,2025-09-16T15:06:37.615,-0.18,0.85,-0.31
22381,2025-09-16T15:06:37.625,-0.12,0.79,-0.31
22382,2025-09-16T15:06:37.635,-0.24,0.85,-0.31
22383,2025-09-16T15:06:37.644,-0.31,0.85,-0.31
22384,2025-09-16T15:06:37.653,-0.37,0.85,-0.31
22385,2025-09-16T15:06:37.663,-0.43,0.79,-0.37
22386,2025-09-16T15:06:37.674,-0.49,0.85,-0.37
22387,2025-09-16T15:06:37.683,-0.43,0.79,-0.43
22388,2025-09-16T15:06:37.693,-0.49,0.79,-0.43
22389,2025-09-16T15:06:37.702,-0.37,0.79,-0.43
22390,2025-09-16T15:06:37.712,-0.31,0.73,-0.43
22391,2025-09-16T15:06:37.722,-0.24,0.73,-0.43
22392,2025-09-16T15:06:37.732,-0.24,0.79,-0.43
22393,2025-09-16T15:06:37.742,-0.24,0.79,-0.43
22394,2025-09-16T15:06:37.751,-0.37,0.79,-0.37
22395,2025-09-16T15:06:37.761,-0.37,0.79,-0.37
22396,2025-09-16T15:06:37.771,-0.37,0.79,-0.37
22397,2025-09-16T15:06:37.781,-0.43,0.79,-0.37
22398,2025-09-16T15:06:37.791,-0.24,0.79,-0.31
22399,2025-09-16T15:06:37.801,-0.31,0.79,-0.31
22400,2025-09-16T15:06:37.810,-0.31,0.79,-0.31
22401,2025-09-16T15:06:37.821,-0.24,0.79,-0.31
22402,2025-09-16T15:06:37.830,-0.18,0.79,-0.37
22403,2025-09-16T15:06:37.840,-0.43,0.85,-0.37
22404,2025-09-16T15:06:37.849,-0.37,0.79,-0.37
22405,2025-09-16T15:06:37.859,-0.43,0.79,-0.37
22406,2025-09-16T15:06:37.869,-0.43,0.85,-0.43
22407,2025-09-16T15:06:37.879,-0.43,0.85,-0.43
22408,2025-09-16T15:06:37.888,-0.31,0.79,-0.49
22409,2025-09-16T15:06:37.899,-0.43,0.79,-0.49
22410,2025-09-16T15:06:37.908,-0.37,0.79,-0.49
22411,2025-09-16T15:06:37.918,-0.31,0.85,-0.49
22412,2025-09-16T15:06:37.928,-0.31,0.79,-0.43
22413,2025-09-16T15:06:37.937,-0.37,0.79,-0.43
22414,2025-09-16T15:06:37.948,-0.24,0.73,-0.43
22415,2025-09-16T15:06:37.958,-0.31,0.79,-0.37
22416,2025-09-16T15:06:37.967,-0.31,0.79,-0.37
22417,2025-09-16T15:06:37.978,-0.24,0.79,-0.37
22418,2025-09-16T15:06:37.987,-0.24,0.79,-0.37
22419,2025-09-16T15:06:37.998,-0.31,0.79,-0.37
22420,2025-09-16T15:06:38.007,-0.31,0.79,-0.37
22421,2025-09-16T15:06:38.016,-0.43,0.79,-0.37
22422,2025-09-16T15:06:38.026,-0.49,0.79,-0.37
22423,2025-09-16T15:06:38.036,-0.37,0.79,-0.37
22424,2025-09-16T15:06:38.045,-0.43,0.79,-0.37
22425,2025-09-16T15:06:38.055,-0.43,0.85,-0.43
22426,2025-09-16T15:06:38.065,-0.31,0.79,-0.43
22427,2025-09-16T15:06:38.075,-0.18,0.79,-0.43
22428,2025-09-16T15:06:38.084,-0.24,0.79,-0.43
22429,2025-09-16T15:06:38.094,-0.31,0.79,-0.43
22430,2025-09-16T15:06:38.104,-0.31,0.85,-0.43
22431,2025-09-16T15:06:38.114,-0.31,0.85,-0.43
22432,2025-09-16T15:06:38.125,-0.43,0.85,-0.43
22433,2025-09-16T15:06:38.133,-0.43,0.85,-0.43
22434,2025-09-16T15:06:38.144,-0.43,0.79,-0.37
22435,2025-09-16T15:06:38.154,-0.37,0.79,-0.37
22436,2025-09-16T15:06:38.164,-0.31,0.73,-0.37
22437,2025-09-16T15:06:38.173,-0.31,0.79,-0.37
22438,2025-09-16T15:06:38.183,-0.31,0.79,-0.37
22439,2025-09-16T15:06:38.193,-0.31,0.79,-0.37
22440,2025-09-16T15:06:38.202,-0.31,0.73,-0.37
22441,2025-09-16T15:06:38.212,-0.37,0.79,-0.37
22442,2025-09-16T15:06:38.222,-0.43,0.79,-0.37
22443,2025-09-16T15:06:38.232,-0.37,0.85,-0.37
22444,2025-09-16T15:06:38.242,-0.43,0.85,-0.37
22445,2025-09-16T15:06:38.251,-0.43,0.85,-0.37
22446,2025-09-16T15:06:38.262,-0.37,0.85,-0.37
22447,2025-09-16T15:06:38.271,-0.31,0.85,-0.43
22448,2025-09-16T15:06:38.281,-0.31,0.79,-0.43
22449,2025-09-16T15:06:38.291,-0.24,0.85,-0.49
22450,2025-09-16T15:06:38.301,-0.37,0.85,-0.49
22451,2025-09-16T15:06:38.310,-0.43,0.92,-0.49
22452,2025-09-16T15:06:38.319,-0.37,0.85,-0.49
22453,2025-09-16T15:06:38.329,-0.37,0.85,-0.43
22454,2025-09-16T15:06:38.340,-0.43,0.85,-0.43
22455,2025-09-16T15:06:38.349,-0.24,0.85,-0.43
22456,2025-09-16T15:06:38.359,-0.31,0.79,-0.37
22457,2025-09-16T15:06:38.369,-0.31,0.79,-0.31
22458,2025-09-16T15:06:38.379,-0.18,0.73,-0.31
22459,2025-09-16T15:06:38.388,-0.31,0.73,-0.31
22460,2025-09-16T15:06:38.398,-0.37,0.73,-0.31
22461,2025-09-16T15:06:38.409,-0.43,0.73,-0.31
22462,2025-09-16T15:06:38.418,-0.43,0.79,-0.37
22463,2025-09-16T15:06:38.428,-0.49,0.79,-0.37
22464,2025-09-16T15:06:38.437,-0.49,0.79,-0.37
22465,2025-09-16T15:06:38.447,-0.37,0.79,-0.37
22466,2025-09-16T15:06:38.457,-0.37,0.79,-0.37
22467,2025-09-16T15:06:38.467,-0.18,0.79,-0.43
22468,2025-09-16T15:06:38.476,-0.18,0.79,-0.37
22469,2025-09-16T15:06:38.486,-0.24,0.85,-0.37
22470,2025-09-16T15:06:38.496,-0.24,0.79,-0.37
22471,2025-09-16T15:06:38.506,-0.24,0.85,-0.43
22472,2025-09-16T15:06:38.516,-0.37,0.79,-0.43
22473,2025-09-16T15:06:38.526,-0.43,0.85,-0.43
22474,2025-09-16T15:06:38.535,-0.37,0.85,-0.43
22475,2025-09-16T15:06:38.545,-0.37,0.85,-0.43
22476,2025-09-16T15:06:38.554,-0.37,0.79,-0.43
22477,2025-09-16T15:06:38.564,-0.31,0.79,-0.43
22478,2025-09-16T15:06:38.574,-0.31,0.79,-0.43
22479,2025-09-16T15:06:38.585,-0.37,0.73,-0.43
22480,2025-09-16T15:06:38.594,-0.43,0.79,-0.43
22481,2025-09-16T15:06:38.604,-0.37,0.73,-0.43
22482,2025-09-16T15:06:38.614,-0.37,0.79,-0.43
22483,2025-09-16T15:06:38.623,-0.43,0.79,-0.43
22484,2025-09-16T15:06:38.633,-0.31,0.73,-0.37
22485,2025-09-16T15:06:38.643,-0.31,0.79,-0.37
22486,2025-09-16T15:06:38.652,-0.31,0.73,-0.37
22487,2025-09-16T15:06:38.662,-0.31,0.79,-0.37
22488,2025-09-16T15:06:38.672,-0.24,0.79,-0.31
22489,2025-09-16T15:06:38.682,-0.37,0.79,-0.31
22490,2025-09-16T15:06:38.691,-0.37,0.85,-0.37
22491,2025-09-16T15:06:38.701,-0.31,0.85,-0.37
22492,2025-09-16T15:06:38.711,-0.37,0.79,-0.37
22493,2025-09-16T15:06:38.722,-0.37,0.85,-0.37
22494,2025-09-16T15:06:38.731,-0.31,0.79,-0.37
22495,2025-09-16T15:06:38.740,-0.37,0.85,-0.37
22496,2025-09-16T15:06:38.750,-0.37,0.85,-0.43
22497,2025-09-16T15:06:38.760,-0.31,0.79,-0.37
22498,2025-09-16T15:06:38.770,-0.37,0.79,-0.43
22499,2025-09-16T15:06:38.779,-0.37,0.79,-0.43
