sample,timestamp,gyro_x,gyro_y,gyro_z
5000,2025-09-16T15:03:47.463,-0.24,0.73,-0.31
5001,2025-09-16T15:03:47.473,-0.31,0.73,-0.24
5002,2025-09-16T15:03:47.483,-0.31,0.73,-0.31
5003,2025-09-16T15:03:47.492,-0.31,0.73,-0.37
5004,2025-09-16T15:03:47.502,-0.31,0.73,-0.37
5005,2025-09-16T15:03:47.512,-0.31,0.73,-0.37
5006,2025-09-16T15:03:47.522,-0.31,0.73,-0.43
5007,2025-09-16T15:03:47.531,-0.37,0.73,-0.49
5008,2025-09-16T15:03:47.541,-0.31,0.73,-0.49
5009,2025-09-16T15:03:47.551,-0.31,0.79,-0.43
5010,2025-09-16T15:03:47.561,-0.31,0.73,-0.43
5011,2025-09-16T15:03:47.571,-0.31,0.79,-0.37
5012,2025-09-16T15:03:47.580,-0.37,0.79,-0.37
5013,2025-09-16T15:03:47.590,-0.37,0.79,-0.37
5014,2025-09-16T15:03:47.600,-0.43,0.85,-0.37
5015,2025-09-16T15:03:47.611,-0.31,0.73,-0.37
5016,2025-09-16T15:03:47.620,-0.37,0.79,-0.31
5017,2025-09-16T15:03:47.630,-0.37,0.79,-0.43
5018,2025-09-16T15:03:47.639,-0.37,0.79,-0.43
5019,2025-09-16T15:03:47.649,-0.43,0.79,-0.43
5020,2025-09-16T15:03:47.659,-0.43,0.79,-0.43
5021,2025-09-16T15:03:47.669,-0.43,0.73,-0.43
5022,2025-09-16T15:03:47.679,-0.43,0.79,-0.49
5023,2025-09-16T15:03:47.688,-0.37,0.79,-0.43
5024,2025-09-16T15:03:47.698,-0.37,0.79,-0.43
5025,2025-09-16T15:03:47.708,-0.31,0.73,-0.43
5026,2025-09-16T15:03:47.718,1.71,0.24,-0.12
5027,2025-09-16T15:03:47.728,1.4,-4.64,3.6
5028,2025-09-16T15:03:47.737,1.4,4.33,6.16
5029,2025-09-16T15:03:47.747,-2.44,-0.67,-5.86
5030,2025-09-16T15:03:47.757,-6.04,2.87,-4.39
5031,2025-09-16T15:03:47.766,4.64,0.24,-2.87
5032,2025-09-16T15:03:47.776,-5.37,1.65,1.71
5033,2025-09-16T15:03:47.786,0.12,-0.12,0.24
5034,2025-09-16T15:03:47.796,-1.16,1.65,-0.98
5035,2025-09-16T15:03:47.806,1.59,0.73,-1.34
5036,2025-09-16T15:03:47.816,-1.46,0.98,-0.06
5037,2025-09-16T15:03:47.826,0.18,0.49,-0.37
5038,2025-09-16T15:03:47.835,-1.1,1.16,-0.43
5039,2025-09-16T15:03:47.846,0.18,0.79,-0.79
5040,2025-09-16T15:03:47.855,-0.79,1.28,-0.73
5041,2025-09-16T15:03:47.865,0.0,0.92,-0.79
5042,2025-09-16T15:03:47.875,-4.03,0.06,-1.34
5043,2025-09-16T15:03:47.884,-56.76,-4.76,-10.93
5044,2025-09-16T15:03:47.894,-102.78,-5.74,-19.65
5045,2025-09-16T15:03:47.904,-76.35,-5.55,-14.95
5046,2025-09-16T15:03:47.914,-73.91,-3.36,-13.73
5047,2025-09-16T15:03:47.923,-50.9,-1.46,-11.41
5048,2025-09-16T15:03:47.933,-30.21,2.08,-14.28
5049,2025-09-16T15:03:47.943,-26.31,3.85,-20.94
5050,2025-09-16T15:03:47.953,-22.09,5.8,-22.16
5051,2025-09-16T15:03:47.962,-4.88,7.02,-18.55
5052,2025-09-16T15:03:47.972,17.21,7.93,-15.81
5053,2025-09-16T15:03:47.982,51.7,7.32,-4.03
5054,2025-09-16T15:03:47.992,77.88,-0.31,27.83
5055,2025-09-16T15:03:48.002,80.99,-4.82,49.56
5056,2025-09-16T15:03:48.012,65.31,-3.66,41.5
5057,2025-09-16T15:03:48.021,20.39,-1.34,15.44
5058,2025-09-16T15:03:48.031,5.13,2.5,-3.54
5059,2025-09-16T15:03:48.041,8.61,3.42,-9.28
5060,2025-09-16T15:03:48.051,1.28,1.4,-4.09
5061,2025-09-16T15:03:48.061,-2.93,0.24,1.71
5062,2025-09-16T15:03:48.070,-2.08,0.49,0.98
5063,2025-09-16T15:03:48.080,0.31,1.1,-1.1
5064,2025-09-16T15:03:48.090,0.31,0.92,-0.98
5065,2025-09-16T15:03:48.099,-0.24,0.73,-0.43
5066,2025-09-16T15:03:48.109,-0.37,0.85,-0.43
5067,2025-09-16T15:03:48.120,-0.31,0.79,-0.43
5068,2025-09-16T15:03:48.129,-0.31,0.85,-0.43
5069,2025-09-16T15:03:48.139,-0.24,0.79,-0.49
5070,2025-09-16T15:03:48.149,-0.12,0.79,-0.55
5071,2025-09-16T15:03:48.158,-0.12,0.85,-0.61
5072,2025-09-16T15:03:48.168,-0.24,0.79,-0.49
5073,2025-09-16T15:03:48.180,-0.31,0.79,-0.43
5074,2025-09-16T15:03:48.187,-0.31,0.79,-0.49
5075,2025-09-16T15:03:48.198,-0.24,0.79,-0.49
5076,2025-09-16T15:03:48.207,-0.24,0.79,-0.49
5077,2025-09-16T15:03:48.217,-0.31,0.79,-0.43
5078,2025-09-16T15:03:48.227,-0.24,0.73,-0.43
5079,2025-09-16T15:03:48.237,-0.31,0.73,-0.37
5080,2025-09-16T15:03:48.246,-0.31,0.79,-0.37
5081,2025-09-16T15:03:48.256,-0.31,0.79,-0.37
5082,2025-09-16T15:03:48.266,-0.31,0.79,-0.37
5083,2025-09-16T15:03:48.275,-0.24,0.79,-0.43
5084,2025-09-16T15:03:48.285,-0.31,0.85,-0.43
5085,2025-09-16T15:03:48.295,-0.31,0.79,-0.43
5086,2025-09-16T15:03:48.305,-0.31,0.79,-0.43
5087,2025-09-16T15:03:48.315,-0.31,0.79,-0.43
5088,2025-09-16T15:03:48.324,-0.31,0.79,-0.49
5089,2025-09-16T15:03:48.334,-0.37,0.85,-0.49
5090,2025-09-16T15:03:48.344,-0.37,0.79,-0.43
5091,2025-09-16T15:03:48.354,-0.37,0.85,-0.49
5092,2025-09-16T15:03:48.364,-0.37,0.79,-0.43
5093,2025-09-16T15:03:48.373,-0.37,0.85,-0.49
5094,2025-09-16T15:03:48.383,-0.31,0.85,-0.49
5095,2025-09-16T15:03:48.393,-0.37,0.85,-0.49
5096,2025-09-16T15:03:48.403,-0.37,0.85,-0.49
5097,2025-09-16T15:03:48.412,-0.31,0.85,-0.43
5098,2025-09-16T15:03:48.422,-0.31,0.79,-0.43
5099,2025-09-16T15:03:48.432,-0.31,0.79,-0.49
5100,2025-09-16T15:03:48.442,-0.31,0.73,-0.43
5101,2025-09-16T15:03:48.451,-0.31,0.73,-0.43
5102,2025-09-16T15:03:48.462,-0.31,0.73,-0.43
5103,2025-09-16T15:03:48.471,-0.31,0.73,-0.37
5104,2025-09-16T15:03:48.481,-0.31,0.79,-0.37
5105,2025-09-16T15:03:48.491,-0.31,0.79,-0.37
5106,2025-09-16T15:03:48.500,-0.37,0.79,-0.37
5107,2025-09-16T15:03:48.511,-0.37,0.79,-0.37
5108,2025-09-16T15:03:48.521,-0.37,0.79,-0.37
5109,2025-09-16T15:03:48.531,-0.43,0.85,-0.43
5110,2025-09-16T15:03:48.540,-0.37,0.79,-0.43
5111,2025-09-16T15:03:48.550,-0.37,0.79,-0.43
5112,2025-09-16T15:03:48.560,-0.31,0.79,-0.43
5113,2025-09-16T15:03:48.570,-0.37,0.79,-0.43
5114,2025-09-16T15:03:48.580,-0.31,0.79,-0.43
5115,2025-09-16T15:03:48.589,-0.37,0.79,-0.43
5116,2025-09-16T15:03:48.599,-0.31,0.79,-0.43
5117,2025-09-16T15:03:48.608,-0.31,0.73,-0.43
5118,2025-09-16T15:03:48.618,-0.31,0.79,-0.43
5119,2025-09-16T15:03:48.628,-0.24,0.73,-0.43
5120,2025-09-16T15:03:48.638,-0.24,0.67,-0.37
5121,2025-09-16T15:03:48.647,-0.31,0.67,-0.37
5122,2025-09-16T15:03:48.657,-0.31,0.67,-0.37
5123,2025-09-16T15:03:48.667,-0.24,0.73,-0.37
5124,2025-09-16T15:03:48.677,-0.31,0.73,-0.37
5125,2025-09-16T15:03:48.686,-0.31,0.73,-0.31
5126,2025-09-16T15:03:48.696,-0.24,0.73,-0.37
5127,2025-09-16T15:03:48.707,-0.31,0.79,-0.43
5128,2025-09-16T15:03:48.717,-0.31,0.73,-0.43
5129,2025-09-16T15:03:48.727,-0.31,0.79,-0.43
5130,2025-09-16T15:03:48.736,-0.37,0.79,-0.43
5131,2025-09-16T15:03:48.746,-0.37,0.79,-0.43
5132,2025-09-16T15:03:48.756,-0.31,0.79,-0.43
5133,2025-09-16T15:03:48.766,-0.31,0.79,-0.43
5134,2025-09-16T15:03:48.776,-0.37,0.79,-0.43
5135,2025-09-16T15:03:48.785,-0.31,0.79,-0.37
5136,2025-09-16T15:03:48.795,-0.18,0.79,-0.37
5137,2025-09-16T15:03:48.805,-0.06,0.79,-0.37
5138,2025-09-16T15:03:48.815,-0.12,0.79,-0.37
5139,2025-09-16T15:03:48.824,-0.12,0.79,-0.43
5140,2025-09-16T15:03:48.834,-0.06,0.73,-0.37
5141,2025-09-16T15:03:48.844,-0.31,0.73,-0.37
5142,2025-09-16T15:03:48.854,-0.31,0.67,-0.31
5143,2025-09-16T15:03:48.864,-0.31,0.67,-0.43
5144,2025-09-16T15:03:48.873,-0.31,0.79,-0.55
5145,2025-09-16T15:03:48.883,-0.31,0.73,-0.37
5146,2025-09-16T15:03:48.893,-0.31,0.73,-0.31
5147,2025-09-16T15:03:48.902,-0.43,0.79,-0.06
5148,2025-09-16T15:03:48.912,-0.06,0.61,-0.43
5149,2025-09-16T15:03:48.922,-0.49,0.85,-0.43
5150,2025-09-16T15:03:48.932,-0.18,0.61,-0.37
5151,2025-09-16T15:03:48.942,-0.43,0.85,-0.49
5152,2025-09-16T15:03:48.951,-0.18,0.67,-0.37
5153,2025-09-16T15:03:48.961,-0.43,0.92,-0.43
5154,2025-09-16T15:03:48.971,-0.31,0.67,-0.37
5155,2025-09-16T15:03:48.981,-0.43,0.92,-0.43
5156,2025-09-16T15:03:48.991,-0.37,0.79,-0.43
5157,2025-09-16T15:03:49.001,-0.43,0.92,-0.49
5158,2025-09-16T15:03:49.010,-0.31,0.79,-0.43
5159,2025-09-16T15:03:49.020,-0.37,0.85,-0.49
5160,2025-09-16T15:03:49.030,-0.31,0.79,-0.49
5161,2025-09-16T15:03:49.039,-0.31,0.79,-0.43
5162,2025-09-16T15:03:49.049,-0.24,0.67,-0.43
5163,2025-09-16T15:03:49.059,-0.24,0.73,-0.43
5164,2025-09-16T15:03:49.069,-0.24,0.67,-0.37
5165,2025-09-16T15:03:49.079,-0.24,0.67,-0.31
5166,2025-09-16T15:03:49.089,-0.31,0.67,-0.18
5167,2025-09-16T15:03:49.098,-0.31,0.67,-0.18
5168,2025-09-16T15:03:49.108,-0.37,0.73,-0.24
5169,2025-09-16T15:03:49.118,-0.31,0.73,-0.24
5170,2025-09-16T15:03:49.128,-0.37,0.79,-0.31
5171,2025-09-16T15:03:49.138,-0.31,0.79,-0.37
5172,2025-09-16T15:03:49.148,-0.37,0.73,-0.43
5173,2025-09-16T15:03:49.157,-0.37,0.85,-0.49
5174,2025-09-16T15:03:49.167,-0.43,0.85,-0.55
5175,2025-09-16T15:03:49.177,-0.49,0.92,-0.61
5176,2025-09-16T15:03:49.186,-0.43,0.92,-0.67
5177,2025-09-16T15:03:49.197,-0.43,0.92,-0.67
5178,2025-09-16T15:03:49.206,-0.43,0.85,-0.61
5179,2025-09-16T15:03:49.216,-0.37,0.85,-0.49
5180,2025-09-16T15:03:49.225,-0.37,0.85,-0.49
5181,2025-09-16T15:03:49.235,-0.37,0.79,-0.43
5182,2025-09-16T15:03:49.245,-0.37,0.73,-0.37
5183,2025-09-16T15:03:49.255,-0.43,0.79,-0.43
5184,2025-09-16T15:03:49.265,-0.37,0.73,-0.43
5185,2025-09-16T15:03:49.274,-0.31,0.73,-0.31
5186,2025-09-16T15:03:49.284,-0.24,0.67,-0.24
5187,2025-09-16T15:03:49.294,-0.18,0.61,-0.18
5188,2025-09-16T15:03:49.304,-0.18,0.67,-0.18
5189,2025-09-16T15:03:49.314,-0.24,0.67,-0.18
5190,2025-09-16T15:03:49.323,-0.37,0.73,-0.31
5191,2025-09-16T15:03:49.333,-0.31,0.79,-0.31
5192,2025-09-16T15:03:49.343,-0.43,0.85,-0.43
5193,2025-09-16T15:03:49.353,-0.43,0.85,-0.49
5194,2025-09-16T15:03:49.363,-0.49,0.92,-0.49
5195,2025-09-16T15:03:49.372,-0.49,0.92,-0.55
5196,2025-09-16T15:03:49.382,-0.55,0.92,-0.55
5197,2025-09-16T15:03:49.392,-0.49,0.92,-0.55
5198,2025-09-16T15:03:49.401,-0.55,0.92,-0.49
5199,2025-09-16T15:03:49.412,-0.55,0.92,-0.55
5200,2025-09-16T15:03:49.422,-0.43,0.92,-0.37
5201,2025-09-16T15:03:49.431,0.06,0.67,-0.49
5202,2025-09-16T15:03:49.441,-0.61,1.1,-0.43
5203,2025-09-16T15:03:49.451,0.12,0.55,-0.37
5204,2025-09-16T15:03:49.461,-0.61,0.85,-0.24
5205,2025-09-16T15:03:49.470,-0.06,0.61,-0.31
5206,2025-09-16T15:03:49.480,-0.55,0.85,-0.31
5207,2025-09-16T15:03:49.490,-0.24,0.55,-0.31
5208,2025-09-16T15:03:49.500,-0.55,0.85,-0.43
5209,2025-09-16T15:03:49.509,-0.31,0.67,-0.31
5210,2025-09-16T15:03:49.519,-0.43,0.85,-0.43
5211,2025-09-16T15:03:49.529,-0.31,0.73,-0.43
5212,2025-09-16T15:03:49.538,-0.49,0.85,-0.49
5213,2025-09-16T15:03:49.548,-0.37,0.85,-0.49
5214,2025-09-16T15:03:49.558,-0.49,0.79,-0.49
5215,2025-09-16T15:03:49.568,-0.37,0.79,-0.43
5216,2025-09-16T15:03:49.578,-0.43,0.79,-0.43
5217,2025-09-16T15:03:49.588,-0.37,0.79,-0.43
5218,2025-09-16T15:03:49.598,-0.43,0.73,-0.43
5219,2025-09-16T15:03:49.607,-0.43,0.79,-0.37
5220,2025-09-16T15:03:49.618,-0.43,0.79,-0.31
5221,2025-09-16T15:03:49.627,-0.43,0.85,-0.31
5222,2025-09-16T15:03:49.637,-0.43,0.79,-0.31
5223,2025-09-16T15:03:49.647,-0.37,0.79,-0.31
5224,2025-09-16T15:03:49.656,-0.37,0.79,-0.37
5225,2025-09-16T15:03:49.666,-0.37,0.79,-0.43
5226,2025-09-16T15:03:49.676,-0.37,0.79,-0.43
5227,2025-09-16T15:03:49.686,-0.37,0.79,-0.43
5228,2025-09-16T15:03:49.696,-0.37,0.73,-0.43
5229,2025-09-16T15:03:49.705,-0.31,0.73,-0.43
5230,2025-09-16T15:03:49.715,-0.37,0.73,-0.37
5231,2025-09-16T15:03:49.724,-0.37,0.73,-0.37
5232,2025-09-16T15:03:49.734,-0.37,0.73,-0.37
5233,2025-09-16T15:03:49.744,-0.37,0.73,-0.37
5234,2025-09-16T15:03:49.754,-0.37,0.79,-0.31
5235,2025-09-16T15:03:49.764,-0.37,0.73,-0.31
5236,2025-09-16T15:03:49.773,-0.37,0.79,-0.31
5237,2025-09-16T15:03:49.784,-0.37,0.79,-0.37
5238,2025-09-16T15:03:49.793,-0.43,0.85,-0.37
5239,2025-09-16T15:03:49.803,-0.43,0.85,-0.43
5240,2025-09-16T15:03:49.813,-0.43,0.79,-0.49
5241,2025-09-16T15:03:49.822,-0.37,0.85,-0.49
5242,2025-09-16T15:03:49.833,-0.43,0.85,-0.49
5243,2025-09-16T15:03:49.842,-0.43,0.85,-0.49
5244,2025-09-16T15:03:49.851,-0.43,0.85,-0.49
5245,2025-09-16T15:03:49.861,-0.37,0.85,-0.49
5246,2025-09-16T15:03:49.871,-0.43,0.79,-0.43
5247,2025-09-16T15:03:49.881,-0.43,0.79,-0.43
5248,2025-09-16T15:03:49.891,-0.31,0.73,-0.31
5249,2025-09-16T15:03:49.900,-0.37,0.79,-0.31
5250,2025-09-16T15:03:49.910,-0.31,0.67,-0.37
5251,2025-09-16T15:03:49.920,-0.24,0.67,-0.24
5252,2025-09-16T15:03:49.930,-0.24,0.67,-0.24
5253,2025-09-16T15:03:49.939,-0.24,0.67,-0.24
5254,2025-09-16T15:03:49.950,-0.24,0.67,-0.31
5255,2025-09-16T15:03:49.959,-0.31,0.73,-0.37
5256,2025-09-16T15:03:49.969,-0.31,0.67,-0.37
5257,2025-09-16T15:03:49.979,-0.37,0.79,-0.37
5258,2025-09-16T15:03:49.989,-0.37,0.73,-0.43
5259,2025-09-16T15:03:50.000,-0.37,0.79,-0.43
5260,2025-09-16T15:03:50.009,-0.43,0.79,-0.43
5261,2025-09-16T15:03:50.019,-0.43,0.85,-0.43
5262,2025-09-16T15:03:50.029,-0.37,0.73,-0.37
5263,2025-09-16T15:03:50.038,-0.43,0.79,-0.37
5264,2025-09-16T15:03:50.048,-0.31,0.73,-0.31
5265,2025-09-16T15:03:50.058,-0.31,0.79,-0.37
5266,2025-09-16T15:03:50.068,-0.31,0.73,-0.37
5267,2025-09-16T15:03:50.078,-0.31,0.79,-0.37
5268,2025-09-16T15:03:50.087,-0.31,0.73,-0.37
5269,2025-09-16T15:03:50.097,-0.37,0.73,-0.37
5270,2025-09-16T15:03:50.106,-0.31,0.73,-0.37
5271,2025-09-16T15:03:50.116,-0.37,0.79,-0.37
5272,2025-09-16T15:03:50.126,-0.37,0.79,-0.37
5273,2025-09-16T15:03:50.136,-0.43,0.79,-0.43
5274,2025-09-16T15:03:50.146,-0.37,0.85,-0.43
5275,2025-09-16T15:03:50.155,-0.43,0.85,-0.49
5276,2025-09-16T15:03:50.165,-0.43,0.79,-0.49
5277,2025-09-16T15:03:50.175,-0.43,0.79,-0.49
5278,2025-09-16T15:03:50.185,-0.37,0.73,-0.49
5279,2025-09-16T15:03:50.195,-0.37,0.79,-0.49
5280,2025-09-16T15:03:50.204,-0.37,0.73,-0.37
5281,2025-09-16T15:03:50.215,-0.31,0.79,-0.37
5282,2025-09-16T15:03:50.224,-0.24,0.67,-0.24
5283,2025-09-16T15:03:50.234,-0.24,0.67,-0.24
5284,2025-09-16T15:03:50.243,-0.24,0.67,-0.24
5285,2025-09-16T15:03:50.253,-0.31,0.73,-0.24
5286,2025-09-16T15:03:50.263,-0.24,0.67,-0.24
5287,2025-09-16T15:03:50.273,-0.31,0.73,-0.31
5288,2025-09-16T15:03:50.283,-0.24,0.67,-0.24
5289,2025-09-16T15:03:50.292,-0.31,0.79,-0.31
5290,2025-09-16T15:03:50.302,-0.31,0.73,-0.37
5291,2025-09-16T15:03:50.312,-0.31,0.73,-0.37
5292,2025-09-16T15:03:50.322,-0.31,0.73,-0.43
5293,2025-09-16T15:03:50.332,-0.37,0.73,-0.43
5294,2025-09-16T15:03:50.341,-0.31,0.73,-0.43
5295,2025-09-16T15:03:50.351,-0.31,0.73,-0.43
5296,2025-09-16T15:03:50.361,-0.37,0.73,-0.43
5297,2025-09-16T15:03:50.371,-0.31,0.73,-0.43
5298,2025-09-16T15:03:50.380,-0.31,0.73,-0.37
5299,2025-09-16T15:03:50.390,-0.24,0.73,-0.37
5300,2025-09-16T15:03:50.400,-0.24,0.67,-0.31
5301,2025-09-16T15:03:50.411,-0.24,0.73,-0.31
5302,2025-09-16T15:03:50.420,-0.24,0.67,-0.24
5303,2025-09-16T15:03:50.430,-0.24,0.73,-0.31
5304,2025-09-16T15:03:50.440,-0.24,0.61,-0.24
5305,2025-09-16T15:03:50.449,-0.24,0.73,-0.31
5306,2025-09-16T15:03:50.459,-0.24,0.55,-0.37
5307,2025-09-16T15:03:50.469,-0.24,0.73,-0.24
5308,2025-09-16T15:03:50.479,-0.18,0.49,-0.31
5309,2025-09-16T15:03:50.489,-0.31,0.79,-0.31
5310,2025-09-16T15:03:50.499,-0.37,0.61,-0.24
5311,2025-09-16T15:03:50.508,-0.43,0.85,-0.31
5312,2025-09-16T15:03:50.518,-0.43,0.79,-0.37
5313,2025-09-16T15:03:50.527,-0.43,0.85,-0.37
5314,2025-09-16T15:03:50.537,-0.37,0.85,-0.37
5315,2025-09-16T15:03:50.547,-0.37,0.79,-0.43
5316,2025-09-16T15:03:50.557,-0.31,0.79,-0.43
5317,2025-09-16T15:03:50.566,-0.31,0.79,-0.43
5318,2025-09-16T15:03:50.577,-0.31,0.73,-0.49
5319,2025-09-16T15:03:50.586,-0.31,0.73,-0.55
5320,2025-09-16T15:03:50.596,-0.37,0.73,-0.49
5321,2025-09-16T15:03:50.606,-0.43,0.85,-0.49
5322,2025-09-16T15:03:50.616,-0.37,0.79,-0.43
5323,2025-09-16T15:03:50.626,-0.37,0.79,-0.37
5324,2025-09-16T15:03:50.635,-0.43,0.79,-0.31
5325,2025-09-16T15:03:50.645,-0.37,0.79,-0.31
5326,2025-09-16T15:03:50.655,-0.31,0.79,-0.31
5327,2025-09-16T15:03:50.665,-0.31,0.85,-0.37
5328,2025-09-16T15:03:50.674,-0.31,0.85,-0.37
5329,2025-09-16T15:03:50.684,-0.37,0.85,-0.43
5330,2025-09-16T15:03:50.695,-0.37,0.85,-0.55
5331,2025-09-16T15:03:50.704,-0.43,0.92,-0.61
5332,2025-09-16T15:03:50.714,-0.43,0.92,-0.61
5333,2025-09-16T15:03:50.723,-0.43,0.92,-0.61
5334,2025-09-16T15:03:50.733,-0.43,0.98,-0.67
5335,2025-09-16T15:03:50.743,-0.37,0.92,-0.61
5336,2025-09-16T15:03:50.753,-0.37,0.92,-0.61
5337,2025-09-16T15:03:50.763,-0.31,0.79,-0.49
5338,2025-09-16T15:03:50.772,-0.37,0.85,-0.49
5339,2025-09-16T15:03:50.782,-0.31,0.67,-0.37
5340,2025-09-16T15:03:50.792,-0.31,0.73,-0.31
5341,2025-09-16T15:03:50.802,-0.31,0.67,-0.24
5342,2025-09-16T15:03:50.811,-0.31,0.67,-0.18
5343,2025-09-16T15:03:50.821,-0.24,0.67,-0.18
5344,2025-09-16T15:03:50.831,-0.18,0.67,-0.18
5345,2025-09-16T15:03:50.840,-0.24,0.67,-0.18
5346,2025-09-16T15:03:50.850,-0.24,0.67,-0.24
5347,2025-09-16T15:03:50.860,-0.24,0.73,-0.31
5348,2025-09-16T15:03:50.870,-0.31,0.79,-0.43
5349,2025-09-16T15:03:50.880,-0.37,0.85,-0.49
5350,2025-09-16T15:03:50.889,-0.37,0.79,-0.49
5351,2025-09-16T15:03:50.901,-0.43,0.85,-0.61
5352,2025-09-16T15:03:50.909,-0.43,0.85,-0.61
5353,2025-09-16T15:03:50.920,-0.43,0.85,-0.67
5354,2025-09-16T15:03:50.929,-0.37,0.85,-0.67
5355,2025-09-16T15:03:50.939,-0.37,0.79,-0.55
5356,2025-09-16T15:03:50.949,-0.37,0.79,-0.49
5357,2025-09-16T15:03:50.959,-0.31,0.73,-0.37
5358,2025-09-16T15:03:50.968,-0.31,0.73,-0.37
5359,2025-09-16T15:03:50.978,-0.24,0.73,-0.24
5360,2025-09-16T15:03:50.988,-0.24,0.67,-0.24
5361,2025-09-16T15:03:51.000,-0.18,0.67,-0.24
5362,2025-09-16T15:03:51.007,-0.24,0.73,-0.31
5363,2025-09-16T15:03:51.017,-0.24,0.67,-0.31
5364,2025-09-16T15:03:51.027,-0.24,0.73,-0.31
5365,2025-09-16T15:03:51.037,-0.31,0.73,-0.37
5366,2025-09-16T15:03:51.046,-0.37,0.79,-0.43
5367,2025-09-16T15:03:51.056,-0.31,0.73,-0.43
5368,2025-09-16T15:03:51.066,-0.37,0.79,-0.49
5369,2025-09-16T15:03:51.076,-0.43,0.79,-0.49
5370,2025-09-16T15:03:51.085,-0.49,0.85,-0.55
5371,2025-09-16T15:03:51.095,-0.43,0.85,-0.55
5372,2025-09-16T15:03:51.105,-0.49,0.85,-0.55
5373,2025-09-16T15:03:51.115,-0.49,0.85,-0.49
5374,2025-09-16T15:03:51.125,-0.43,0.85,-0.49
5375,2025-09-16T15:03:51.135,-0.37,0.79,-0.43
5376,2025-09-16T15:03:51.145,-0.31,0.79,-0.43
5377,2025-09-16T15:03:51.154,-0.31,0.79,-0.43
5378,2025-09-16T15:03:51.164,-0.31,0.73,-0.43
5379,2025-09-16T15:03:51.174,-0.31,0.73,-0.43
5380,2025-09-16T15:03:51.184,-0.31,0.73,-0.43
5381,2025-09-16T15:03:51.194,-0.31,0.73,-0.43
5382,2025-09-16T15:03:51.203,-0.37,0.73,-0.43
5383,2025-09-16T15:03:51.213,-0.31,0.73,-0.43
5384,2025-09-16T15:03:51.222,-0.31,0.79,-0.43
5385,2025-09-16T15:03:51.232,-0.24,0.73,-0.43
5386,2025-09-16T15:03:51.242,-0.31,0.73,-0.43
5387,2025-09-16T15:03:51.251,-0.24,0.73,-0.43
5388,2025-09-16T15:03:51.261,-0.24,0.67,-0.37
5389,2025-09-16T15:03:51.271,-0.24,0.73,-0.37
5390,2025-09-16T15:03:51.281,-0.24,0.61,-0.37
5391,2025-09-16T15:03:51.291,-0.24,0.73,-0.31
5392,2025-09-16T15:03:51.300,-0.18,0.67,-0.24
5393,2025-09-16T15:03:51.311,-0.24,0.67,-0.31
5394,2025-09-16T15:03:51.321,-0.18,0.67,-0.24
5395,2025-09-16T15:03:51.330,-0.24,0.67,-0.31
5396,2025-09-16T15:03:51.340,-0.18,0.67,-0.24
5397,2025-09-16T15:03:51.350,-0.31,0.67,-0.24
5398,2025-09-16T15:03:51.360,-0.24,0.67,-0.31
5399,2025-09-16T15:03:51.369,-0.31,0.73,-0.37
5400,2025-09-16T15:03:51.380,-0.37,0.79,-0.43
5401,2025-09-16T15:03:51.389,-0.37,0.73,-0.43
5402,2025-09-16T15:03:51.399,-0.37,0.79,-0.43
5403,2025-09-16T15:03:51.409,-0.37,0.79,-0.43
5404,2025-09-16T15:03:51.418,-0.37,0.79,-0.43
5405,2025-09-16T15:03:51.428,-0.37,0.85,-0.43
5406,2025-09-16T15:03:51.437,-0.37,0.79,-0.37
5407,2025-09-16T15:03:51.448,-0.37,0.79,-0.43
5408,2025-09-16T15:03:51.458,-0.37,0.79,-0.49
5409,2025-09-16T15:03:51.467,-0.37,0.85,-0.43
5410,2025-09-16T15:03:51.477,-0.37,0.85,-0.43
5411,2025-09-16T15:03:51.487,-0.37,0.79,-0.43
5412,2025-09-16T15:03:51.497,-0.37,0.85,-0.49
5413,2025-09-16T15:03:51.506,-0.37,0.79,-0.49
5414,2025-09-16T15:03:51.517,-0.37,0.79,-0.49
5415,2025-09-16T15:03:51.526,-0.37,0.79,-0.43
5416,2025-09-16T15:03:51.536,-0.37,0.79,-0.43
5417,2025-09-16T15:03:51.546,-0.31,0.73,-0.37
5418,2025-09-16T15:03:51.555,-0.37,0.79,-0.43
5419,2025-09-16T15:03:51.565,-0.31,0.73,-0.31
5420,2025-09-16T15:03:51.575,-0.31,0.73,-0.37
5421,2025-09-16T15:03:51.585,-0.31,0.73,-0.37
5422,2025-09-16T15:03:51.594,-0.31,0.79,-0.31
5423,2025-09-16T15:03:51.604,-0.31,0.79,-0.37
5424,2025-09-16T15:03:51.614,-0.31,0.73,-0.37
5425,2025-09-16T15:03:51.624,-0.37,0.79,-0.37
5426,2025-09-16T15:03:51.634,-0.37,0.79,-0.43
5427,2025-09-16T15:03:51.644,-0.37,0.85,-0.49
5428,2025-09-16T15:03:51.653,-0.37,0.79,-0.49
5429,2025-09-16T15:03:51.664,-0.37,0.85,-0.49
5430,2025-09-16T15:03:51.673,-0.37,0.85,-0.55
5431,2025-09-16T15:03:51.683,-0.37,0.85,-0.55
5432,2025-09-16T15:03:51.693,-0.37,0.79,-0.49
5433,2025-09-16T15:03:51.703,-0.37,0.79,-0.49
5434,2025-09-16T15:03:51.712,-0.31,0.85,-0.43
5435,2025-09-16T15:03:51.722,-0.31,0.73,-0.43
5436,2025-09-16T15:03:51.731,-0.24,0.79,-0.37
5437,2025-09-16T15:03:51.741,-0.31,0.79,-0.43
5438,2025-09-16T15:03:51.751,-0.31,0.79,-0.37
5439,2025-09-16T15:03:51.761,-0.24,0.61,-0.31
5440,2025-09-16T15:03:51.771,-0.37,0.85,-0.37
5441,2025-09-16T15:03:51.780,-0.31,0.73,-0.31
5442,2025-09-16T15:03:51.790,-0.37,0.85,-0.37
5443,2025-09-16T15:03:51.800,-0.24,0.67,-0.37
5444,2025-09-16T15:03:51.810,-0.31,0.79,-0.37
5445,2025-09-16T15:03:51.820,-0.31,0.73,-0.43
5446,2025-09-16T15:03:51.830,-0.37,0.79,-0.49
5447,2025-09-16T15:03:51.840,-0.43,0.79,-0.55
5448,2025-09-16T15:03:51.850,-0.43,0.79,-0.55
5449,2025-09-16T15:03:51.859,-0.43,0.85,-0.55
5450,2025-09-16T15:03:51.869,-0.43,0.92,-0.55
5451,2025-09-16T15:03:51.879,-0.43,0.85,-0.49
5452,2025-09-16T15:03:51.889,-0.43,0.92,-0.49
5453,2025-09-16T15:03:51.898,-0.43,0.85,-0.49
5454,2025-09-16T15:03:51.908,-0.37,0.85,-0.43
5455,2025-09-16T15:03:51.918,-0.37,0.85,-0.43
5456,2025-09-16T15:03:51.927,-0.37,0.85,-0.43
5457,2025-09-16T15:03:51.937,-0.31,0.73,-0.37
5458,2025-09-16T15:03:51.947,-0.31,0.67,-0.37
5459,2025-09-16T15:03:51.956,-0.49,0.85,-0.37
5460,2025-09-16T15:03:51.966,0.0,0.55,-0.24
5461,2025-09-16T15:03:51.977,-0.55,0.92,-0.37
5462,2025-09-16T15:03:51.986,-0.18,0.61,-0.18
5463,2025-09-16T15:03:51.996,-0.49,0.85,-0.43
5464,2025-09-16T15:03:52.006,-0.18,0.67,-0.37
5465,2025-09-16T15:03:52.015,-0.49,0.85,-0.43
5466,2025-09-16T15:03:52.025,-0.31,0.79,-0.37
5467,2025-09-16T15:03:52.035,-0.37,0.79,-0.49
5468,2025-09-16T15:03:52.045,-0.37,0.85,-0.43
5469,2025-09-16T15:03:52.054,-0.37,0.73,-0.49
5470,2025-09-16T15:03:52.064,-0.43,0.92,-0.49
5471,2025-09-16T15:03:52.074,-0.37,0.79,-0.49
5472,2025-09-16T15:03:52.084,-0.37,0.85,-0.43
5473,2025-09-16T15:03:52.093,-0.37,0.79,-0.49
5474,2025-09-16T15:03:52.103,-0.37,0.79,-0.43
5475,2025-09-16T15:03:52.114,-0.37,0.73,-0.43
5476,2025-09-16T15:03:52.124,-0.37,0.79,-0.37
5477,2025-09-16T15:03:52.133,-0.31,0.73,-0.37
5478,2025-09-16T15:03:52.143,-0.37,0.85,-0.37
5479,2025-09-16T15:03:52.153,-0.31,0.73,-0.37
5480,2025-09-16T15:03:52.163,-0.31,0.73,-0.37
5481,2025-09-16T15:03:52.172,-0.31,0.79,-0.37
5482,2025-09-16T15:03:52.182,-0.31,0.73,-0.37
5483,2025-09-16T15:03:52.193,-0.31,0.73,-0.43
5484,2025-09-16T15:03:52.202,-0.37,0.85,-0.43
5485,2025-09-16T15:03:52.211,-0.31,0.79,-0.43
5486,2025-09-16T15:03:52.221,-0.37,0.79,-0.43
5487,2025-09-16T15:03:52.230,-0.31,0.79,-0.49
5488,2025-09-16T15:03:52.240,-0.37,0.79,-0.43
5489,2025-09-16T15:03:52.250,-0.37,0.79,-0.43
5490,2025-09-16T15:03:52.260,-0.37,0.79,-0.43
5491,2025-09-16T15:03:52.270,-0.37,0.73,-0.43
5492,2025-09-16T15:03:52.279,-0.31,0.73,-0.43
5493,2025-09-16T15:03:52.290,-0.37,0.73,-0.43
5494,2025-09-16T15:03:52.300,-0.31,0.73,-0.37
5495,2025-09-16T15:03:52.310,-0.37,0.73,-0.37
5496,2025-09-16T15:03:52.319,-0.24,0.73,-0.37
5497,2025-09-16T15:03:52.329,-0.37,0.79,-0.37
5498,2025-09-16T15:03:52.339,-0.31,0.73,-0.37
5499,2025-09-16T15:03:52.349,-0.37,0.73,-0.37
