sample,timestamp,gyro_x,gyro_y,gyro_z
30000,2025-09-16T15:07:52.217,-0.43,0.79,-0.31
30001,2025-09-16T15:07:52.227,-0.37,0.79,-0.31
30002,2025-09-16T15:07:52.237,-0.49,0.79,-0.31
30003,2025-09-16T15:07:52.247,-0.43,0.79,-0.31
30004,2025-09-16T15:07:52.256,-0.37,0.79,-0.37
30005,2025-09-16T15:07:52.266,-0.24,0.79,-0.37
30006,2025-09-16T15:07:52.276,-0.31,0.79,-0.37
30007,2025-09-16T15:07:52.286,-0.18,0.79,-0.43
30008,2025-09-16T15:07:52.295,-0.37,0.79,-0.43
30009,2025-09-16T15:07:52.305,-0.37,0.79,-0.43
30010,2025-09-16T15:07:52.315,-0.43,0.85,-0.49
30011,2025-09-16T15:07:52.324,-0.43,0.85,-0.55
30012,2025-09-16T15:07:52.334,-0.49,0.85,-0.49
30013,2025-09-16T15:07:52.344,-0.43,0.85,-0.55
30014,2025-09-16T15:07:52.354,-0.31,0.79,-0.43
30015,2025-09-16T15:07:52.364,-0.31,0.85,-0.43
30016,2025-09-16T15:07:52.375,-0.24,0.85,-0.37
30017,2025-09-16T15:07:52.384,-0.18,0.79,-0.37
30018,2025-09-16T15:07:52.393,-0.31,0.79,-0.37
30019,2025-09-16T15:07:52.403,-0.49,0.79,-0.37
30020,2025-09-16T15:07:52.413,-0.43,0.79,-0.37
30021,2025-09-16T15:07:52.422,-0.31,0.79,-0.31
30022,2025-09-16T15:07:52.432,-0.43,0.79,-0.37
30023,2025-09-16T15:07:52.443,-0.24,0.79,-0.31
30024,2025-09-16T15:07:52.452,-0.24,0.79,-0.31
30025,2025-09-16T15:07:52.461,-0.37,0.85,-0.37
30026,2025-09-16T15:07:52.471,-0.37,0.79,-0.37
30027,2025-09-16T15:07:52.481,-0.37,0.85,-0.43
30028,2025-09-16T15:07:52.491,-0.43,0.79,-0.43
30029,2025-09-16T15:07:52.501,-0.37,0.79,-0.49
30030,2025-09-16T15:07:52.511,-0.37,0.79,-0.49
30031,2025-09-16T15:07:52.521,-0.37,0.79,-0.49
30032,2025-09-16T15:07:52.531,-0.43,0.79,-0.49
30033,2025-09-16T15:07:52.540,-0.37,0.79,-0.43
30034,2025-09-16T15:07:52.550,-0.37,0.79,-0.43
30035,2025-09-16T15:07:52.560,-0.37,0.79,-0.37
30036,2025-09-16T15:07:52.569,-0.24,0.79,-0.37
30037,2025-09-16T15:07:52.579,-0.31,0.79,-0.37
30038,2025-09-16T15:07:52.589,-0.18,0.79,-0.31
30039,2025-09-16T15:07:52.599,-0.18,0.79,-0.31
30040,2025-09-16T15:07:52.609,-0.24,0.79,-0.31
30041,2025-09-16T15:07:52.618,-0.37,0.79,-0.37
30042,2025-09-16T15:07:52.628,-0.43,0.85,-0.37
30043,2025-09-16T15:07:52.638,-0.43,0.79,-0.37
30044,2025-09-16T15:07:52.649,-0.37,0.79,-0.43
30045,2025-09-16T15:07:52.657,-0.37,0.79,-0.43
30046,2025-09-16T15:07:52.667,-0.24,0.79,-0.49
30047,2025-09-16T15:07:52.677,-0.37,0.79,-0.49
30048,2025-09-16T15:07:52.687,-0.49,0.79,-0.49
30049,2025-09-16T15:07:52.697,-0.43,0.85,-0.49
30050,2025-09-16T15:07:52.707,-0.43,0.85,-0.49
30051,2025-09-16T15:07:52.717,-0.55,0.85,-0.49
30052,2025-09-16T15:07:52.727,-0.37,0.79,-0.43
30053,2025-09-16T15:07:52.736,-0.37,0.85,-0.43
30054,2025-09-16T15:07:52.746,-0.31,0.85,-0.43
30055,2025-09-16T15:07:52.756,-0.12,0.79,-0.43
30056,2025-09-16T15:07:52.766,-0.24,0.79,-0.37
30057,2025-09-16T15:07:52.775,-0.31,0.79,-0.37
30058,2025-09-16T15:07:52.785,-0.37,0.79,-0.43
30059,2025-09-16T15:07:52.795,-0.43,0.79,-0.43
30060,2025-09-16T15:07:52.804,-0.49,0.79,-0.43
30061,2025-09-16T15:07:52.815,-0.49,0.85,-0.43
30062,2025-09-16T15:07:52.825,-0.43,0.85,-0.37
30063,2025-09-16T15:07:52.835,-0.37,0.79,-0.43
30064,2025-09-16T15:07:52.844,-0.24,0.79,-0.43
30065,2025-09-16T15:07:52.853,-0.18,0.79,-0.37
30066,2025-09-16T15:07:52.863,-0.24,0.85,-0.37
30067,2025-09-16T15:07:52.873,-0.24,0.79,-0.37
30068,2025-09-16T15:07:52.883,-0.37,0.79,-0.37
30069,2025-09-16T15:07:52.893,-0.43,0.79,-0.37
30070,2025-09-16T15:07:52.902,-0.43,0.79,-0.37
30071,2025-09-16T15:07:52.912,-0.31,0.79,-0.37
30072,2025-09-16T15:07:52.922,-0.37,0.79,-0.37
30073,2025-09-16T15:07:52.932,-0.31,0.79,-0.37
30074,2025-09-16T15:07:52.942,-0.24,0.85,-0.37
30075,2025-09-16T15:07:52.951,-0.24,0.79,-0.43
30076,2025-09-16T15:07:52.961,-0.37,0.79,-0.37
30077,2025-09-16T15:07:52.971,-0.43,0.79,-0.37
30078,2025-09-16T15:07:52.980,-0.49,0.85,-0.37
30079,2025-09-16T15:07:52.991,-0.43,0.85,-0.43
30080,2025-09-16T15:07:53.001,-0.37,0.85,-0.37
30081,2025-09-16T15:07:53.010,-0.43,0.85,-0.37
30082,2025-09-16T15:07:53.020,-0.06,0.79,-0.37
30083,2025-09-16T15:07:53.029,-0.37,0.79,-0.37
30084,2025-09-16T15:07:53.039,-0.06,0.79,-0.43
30085,2025-09-16T15:07:53.049,-0.06,0.85,-0.37
30086,2025-09-16T15:07:53.059,-0.24,0.85,-0.43
30087,2025-09-16T15:07:53.069,-0.55,0.85,-0.43
30088,2025-09-16T15:07:53.078,-0.55,0.85,-0.43
30089,2025-09-16T15:07:53.086,-0.79,0.85,-0.49
30090,2025-09-16T15:07:53.098,-0.73,0.92,-0.55
30091,2025-09-16T15:07:53.107,-0.61,0.85,-0.55
30092,2025-09-16T15:07:53.118,-0.49,0.85,-0.55
30093,2025-09-16T15:07:53.127,-0.31,0.79,-0.43
30094,2025-09-16T15:07:53.137,0.06,0.73,-0.43
30095,2025-09-16T15:07:53.147,0.12,0.73,-0.43
30096,2025-09-16T15:07:53.157,-0.06,0.73,-0.37
30097,2025-09-16T15:07:53.166,-0.12,0.73,-0.31
30098,2025-09-16T15:07:53.176,-0.37,0.79,-0.31
30099,2025-09-16T15:07:53.186,-0.73,0.79,-0.31
30100,2025-09-16T15:07:53.196,-0.73,0.85,-0.31
30101,2025-09-16T15:07:53.206,-0.49,0.85,-0.31
30102,2025-09-16T15:07:53.216,-0.37,0.85,-0.31
30103,2025-09-16T15:07:53.226,-0.06,0.79,-0.24
30104,2025-09-16T15:07:53.236,0.0,0.79,-0.31
30105,2025-09-16T15:07:53.245,-0.12,0.79,-0.31
30106,2025-09-16T15:07:53.255,-0.06,0.73,-0.37
30107,2025-09-16T15:07:53.265,-0.55,0.79,-0.37
30108,2025-09-16T15:07:53.275,-0.67,0.79,-0.49
30109,2025-09-16T15:07:53.285,-0.79,0.79,-0.49
30110,2025-09-16T15:07:53.294,-0.61,0.79,-0.49
30111,2025-09-16T15:07:53.304,-0.43,0.85,-0.49
30112,2025-09-16T15:07:53.313,-0.24,0.85,-0.43
30113,2025-09-16T15:07:53.323,-0.12,0.85,-0.49
30114,2025-09-16T15:07:53.333,-0.06,0.85,-0.43
30115,2025-09-16T15:07:53.343,-0.18,0.85,-0.37
30116,2025-09-16T15:07:53.353,-0.31,0.79,-0.37
30117,2025-09-16T15:07:53.363,-0.43,0.79,-0.43
30118,2025-09-16T15:07:53.372,-0.55,0.79,-0.37
30119,2025-09-16T15:07:53.382,-0.55,0.79,-0.37
30120,2025-09-16T15:07:53.392,-0.31,0.73,-0.31
30121,2025-09-16T15:07:53.402,-0.24,0.73,-0.31
30122,2025-09-16T15:07:53.411,-0.12,0.73,-0.31
30123,2025-09-16T15:07:53.421,-0.06,0.73,-0.31
30124,2025-09-16T15:07:53.431,-0.18,0.79,-0.31
30125,2025-09-16T15:07:53.441,-0.31,0.79,-0.37
30126,2025-09-16T15:07:53.451,-0.37,0.79,-0.43
30127,2025-09-16T15:07:53.460,-0.61,0.85,-0.43
30128,2025-09-16T15:07:53.470,-0.67,0.85,-0.43
30129,2025-09-16T15:07:53.480,-0.73,0.85,-0.43
30130,2025-09-16T15:07:53.490,-0.43,0.79,-0.37
30131,2025-09-16T15:07:53.500,-0.37,0.79,-0.37
30132,2025-09-16T15:07:53.510,-0.06,0.79,-0.31
30133,2025-09-16T15:07:53.520,0.24,0.79,-0.37
30134,2025-09-16T15:07:53.530,0.18,0.79,-0.37
30135,2025-09-16T15:07:53.540,-0.18,0.79,-0.37
30136,2025-09-16T15:07:53.549,-0.43,0.85,-0.43
30137,2025-09-16T15:07:53.559,-0.73,0.85,-0.43
30138,2025-09-16T15:07:53.570,-0.85,0.92,-0.49
30139,2025-09-16T15:07:53.578,-0.85,0.92,-0.49
30140,2025-09-16T15:07:53.588,-0.61,0.85,-0.43
30141,2025-09-16T15:07:53.598,-0.31,0.79,-0.43
30142,2025-09-16T15:07:53.607,-0.18,0.79,-0.43
30143,2025-09-16T15:07:53.617,-0.12,0.79,-0.43
30144,2025-09-16T15:07:53.627,-0.12,0.79,-0.37
30145,2025-09-16T15:07:53.637,-0.24,0.79,-0.37
30146,2025-09-16T15:07:53.646,-0.43,0.85,-0.37
30147,2025-09-16T15:07:53.656,-0.49,0.79,-0.43
30148,2025-09-16T15:07:53.666,-0.49,0.85,-0.31
30149,2025-09-16T15:07:53.676,-0.37,0.85,-0.24
30150,2025-09-16T15:07:53.686,-0.18,0.79,-0.24
30151,2025-09-16T15:07:53.696,-0.06,0.79,-0.24
30152,2025-09-16T15:07:53.706,0.0,0.73,-0.24
30153,2025-09-16T15:07:53.715,0.0,0.73,-0.24
30154,2025-09-16T15:07:53.725,-0.18,0.79,-0.31
30155,2025-09-16T15:07:53.736,-0.55,0.85,-0.43
30156,2025-09-16T15:07:53.745,-0.73,0.79,-0.43
30157,2025-09-16T15:07:53.755,-0.92,0.85,-0.49
30158,2025-09-16T15:07:53.764,-0.73,0.85,-0.49
30159,2025-09-16T15:07:53.775,-0.37,0.79,-0.43
30160,2025-09-16T15:07:53.784,-0.06,0.79,-0.43
30161,2025-09-16T15:07:53.793,-0.06,0.85,-0.43
30162,2025-09-16T15:07:53.803,-0.06,0.85,-0.49
30163,2025-09-16T15:07:53.813,-0.18,0.85,-0.49
30164,2025-09-16T15:07:53.823,-0.43,0.92,-0.49
30165,2025-09-16T15:07:53.832,-0.55,0.92,-0.43
30166,2025-09-16T15:07:53.846,-0.73,0.92,-0.37
30167,2025-09-16T15:07:53.852,-0.49,0.85,-0.37
30168,2025-09-16T15:07:53.861,-0.37,0.85,-0.31
30169,2025-09-16T15:07:53.872,-0.18,0.79,-0.31
30170,2025-09-16T15:07:53.882,0.12,0.73,-0.24
30171,2025-09-16T15:07:53.891,0.12,0.73,-0.24
30172,2025-09-16T15:07:53.901,-0.12,0.79,-0.24
30173,2025-09-16T15:07:53.911,-0.37,0.79,-0.31
30174,2025-09-16T15:07:53.921,-0.55,0.79,-0.37
30175,2025-09-16T15:07:53.930,-0.73,0.79,-0.43
30176,2025-09-16T15:07:53.940,-0.85,0.79,-0.43
30177,2025-09-16T15:07:53.950,-0.67,0.79,-0.43
30178,2025-09-16T15:07:53.960,-0.24,0.79,-0.43
30179,2025-09-16T15:07:53.969,-0.06,0.79,-0.37
30180,2025-09-16T15:07:53.979,0.06,0.79,-0.37
30181,2025-09-16T15:07:53.989,0.06,0.79,-0.37
30182,2025-09-16T15:07:53.998,-0.18,0.85,-0.43
30183,2025-09-16T15:07:54.009,-0.37,0.85,-0.37
30184,2025-09-16T15:07:54.018,-0.61,0.92,-0.43
30185,2025-09-16T15:07:54.028,-0.73,0.92,-0.43
30186,2025-09-16T15:07:54.038,-0.49,0.92,-0.37
30187,2025-09-16T15:07:54.048,-0.37,0.85,-0.37
30188,2025-09-16T15:07:54.057,-0.31,0.85,-0.37
30189,2025-09-16T15:07:54.067,0.0,0.79,-0.37
30190,2025-09-16T15:07:54.077,0.0,0.79,-0.37
30191,2025-09-16T15:07:54.087,-0.37,0.79,-0.37
30192,2025-09-16T15:07:54.097,-0.43,0.85,-0.43
30193,2025-09-16T15:07:54.107,-0.55,0.79,-0.43
30194,2025-09-16T15:07:54.117,-0.49,0.79,-0.43
30195,2025-09-16T15:07:54.127,-0.49,0.79,-0.37
30196,2025-09-16T15:07:54.136,-0.43,0.85,-0.43
30197,2025-09-16T15:07:54.146,-0.37,0.85,-0.43
30198,2025-09-16T15:07:54.156,-0.24,0.79,-0.43
30199,2025-09-16T15:07:54.166,-0.24,0.79,-0.37
30200,2025-09-16T15:07:54.176,-0.12,0.79,-0.37
30201,2025-09-16T15:07:54.185,-0.31,0.79,-0.37
30202,2025-09-16T15:07:54.195,-0.49,0.79,-0.43
30203,2025-09-16T15:07:54.204,-0.43,0.79,-0.37
30204,2025-09-16T15:07:54.214,-0.43,0.73,-0.37
30205,2025-09-16T15:07:54.224,-0.37,0.79,-0.37
30206,2025-09-16T15:07:54.234,-0.31,0.73,-0.37
30207,2025-09-16T15:07:54.243,-0.24,0.73,-0.37
30208,2025-09-16T15:07:54.253,-0.18,0.73,-0.31
30209,2025-09-16T15:07:54.263,-0.18,0.73,-0.31
30210,2025-09-16T15:07:54.273,-0.24,0.79,-0.37
30211,2025-09-16T15:07:54.282,-0.49,0.79,-0.37
30212,2025-09-16T15:07:54.292,-0.43,0.79,-0.31
30213,2025-09-16T15:07:54.302,-0.43,0.79,-0.31
30214,2025-09-16T15:07:54.312,-0.43,0.79,-0.37
30215,2025-09-16T15:07:54.322,-0.24,0.73,-0.37
30216,2025-09-16T15:07:54.332,-0.18,0.73,-0.31
30217,2025-09-16T15:07:54.341,-0.31,0.79,-0.37
30218,2025-09-16T15:07:54.352,-0.24,0.79,-0.43
30219,2025-09-16T15:07:54.362,-0.24,0.79,-0.43
30220,2025-09-16T15:07:54.371,-0.43,0.79,-0.43
30221,2025-09-16T15:07:54.382,-0.49,0.79,-0.43
30222,2025-09-16T15:07:54.391,-0.49,0.85,-0.43
30223,2025-09-16T15:07:54.401,-0.43,0.79,-0.43
30224,2025-09-16T15:07:54.411,-0.31,0.79,-0.37
30225,2025-09-16T15:07:54.421,-0.24,0.79,-0.43
30226,2025-09-16T15:07:54.430,-0.24,0.85,-0.43
30227,2025-09-16T15:07:54.440,-0.24,0.85,-0.37
30228,2025-09-16T15:07:54.450,-0.43,0.85,-0.43
30229,2025-09-16T15:07:54.460,-0.67,0.85,-0.43
30230,2025-09-16T15:07:54.468,-0.49,0.85,-0.43
30231,2025-09-16T15:07:54.479,0.0,0.79,-0.37
30232,2025-09-16T15:07:54.489,-0.12,0.85,-0.37
30233,2025-09-16T15:07:54.499,-0.31,0.79,-0.37
30234,2025-09-16T15:07:54.509,-0.31,0.79,-0.43
30235,2025-09-16T15:07:54.519,-0.31,0.85,-0.37
30236,2025-09-16T15:07:54.528,-0.73,0.85,-0.43
30237,2025-09-16T15:07:54.538,-0.92,0.92,-0.49
30238,2025-09-16T15:07:54.548,-0.55,0.85,-0.43
30239,2025-09-16T15:07:54.557,-0.37,0.85,-0.43
30240,2025-09-16T15:07:54.568,-0.12,0.85,-0.37
30241,2025-09-16T15:07:54.577,-0.06,0.79,-0.31
30242,2025-09-16T15:07:54.587,0.0,0.85,-0.31
30243,2025-09-16T15:07:54.596,-0.18,0.85,-0.31
30244,2025-09-16T15:07:54.606,-0.24,0.85,-0.24
30245,2025-09-16T15:07:54.616,-0.37,0.85,-0.24
30246,2025-09-16T15:07:54.626,-0.37,0.85,-0.31
30247,2025-09-16T15:07:54.636,-0.37,0.85,-0.31
30248,2025-09-16T15:07:54.645,-0.31,0.85,-0.37
30249,2025-09-16T15:07:54.655,-0.43,0.85,-0.43
30250,2025-09-16T15:07:54.665,-0.55,0.85,-0.55
30251,2025-09-16T15:07:54.675,-0.55,0.85,-0.55
30252,2025-09-16T15:07:54.684,-0.61,0.85,-0.55
30253,2025-09-16T15:07:54.696,-0.67,0.85,-0.61
30254,2025-09-16T15:07:54.704,-0.61,0.85,-0.61
30255,2025-09-16T15:07:54.714,-0.55,0.85,-0.61
30256,2025-09-16T15:07:54.724,-0.49,0.85,-0.61
30257,2025-09-16T15:07:54.734,-0.31,0.85,-0.49
30258,2025-09-16T15:07:54.744,-0.12,0.79,-0.43
30259,2025-09-16T15:07:54.753,-0.18,0.79,-0.37
30260,2025-09-16T15:07:54.763,-0.06,0.79,-0.18
30261,2025-09-16T15:07:54.773,-0.12,0.85,-0.12
30262,2025-09-16T15:07:54.783,-0.18,0.85,-0.12
30263,2025-09-16T15:07:54.792,-0.31,0.85,-0.06
30264,2025-09-16T15:07:54.802,-0.12,0.85,-0.06
30265,2025-09-16T15:07:54.811,-0.24,0.85,-0.06
30266,2025-09-16T15:07:54.821,-0.18,0.79,-0.12
30267,2025-09-16T15:07:54.831,-0.31,0.79,-0.18
30268,2025-09-16T15:07:54.841,-0.18,0.79,-0.31
30269,2025-09-16T15:07:54.851,-0.37,0.79,-0.43
30270,2025-09-16T15:07:54.861,-0.55,0.79,-0.55
30271,2025-09-16T15:07:54.871,-0.73,0.85,-0.67
30272,2025-09-16T15:07:54.880,-0.79,0.85,-0.73
30273,2025-09-16T15:07:54.890,-0.79,0.85,-0.79
30274,2025-09-16T15:07:54.901,-0.92,0.92,-0.85
30275,2025-09-16T15:07:54.910,-0.49,0.85,-0.79
30276,2025-09-16T15:07:54.920,-0.24,0.85,-0.67
30277,2025-09-16T15:07:54.930,-0.18,0.85,-0.67
30278,2025-09-16T15:07:54.939,-0.06,0.79,-0.55
30279,2025-09-16T15:07:54.949,0.18,0.85,-0.49
30280,2025-09-16T15:07:54.959,-0.18,0.92,-0.43
30281,2025-09-16T15:07:54.968,-0.12,0.92,-0.43
30282,2025-09-16T15:07:54.978,-0.49,0.92,-0.31
30283,2025-09-16T15:07:54.988,-0.43,0.85,-0.37
30284,2025-09-16T15:07:54.998,-0.85,0.85,-0.43
30285,2025-09-16T15:07:55.008,-0.92,0.79,-0.49
30286,2025-09-16T15:07:55.017,-1.04,0.73,-0.49
30287,2025-09-16T15:07:55.027,-0.79,0.67,-0.49
30288,2025-09-16T15:07:55.037,-0.49,0.67,-0.43
30289,2025-09-16T15:07:55.047,-0.12,0.67,-0.37
30290,2025-09-16T15:07:55.056,0.12,0.67,-0.24
30291,2025-09-16T15:07:55.066,0.24,0.67,-0.12
30292,2025-09-16T15:07:55.076,0.18,0.73,0.06
30293,2025-09-16T15:07:55.086,0.31,0.73,0.12
30294,2025-09-16T15:07:55.096,0.06,0.79,0.12
30295,2025-09-16T15:07:55.106,0.0,0.79,0.12
30296,2025-09-16T15:07:55.115,-0.06,0.79,0.06
30297,2025-09-16T15:07:55.125,-0.24,0.79,-0.06
30298,2025-09-16T15:07:55.135,-0.61,0.79,-0.24
30299,2025-09-16T15:07:55.145,-0.79,0.79,-0.43
30300,2025-09-16T15:07:55.155,-1.04,0.79,-0.55
30301,2025-09-16T15:07:55.165,-0.73,0.67,-0.67
30302,2025-09-16T15:07:55.174,-0.61,0.73,-0.79
30303,2025-09-16T15:07:55.184,-0.85,0.73,-0.92
30304,2025-09-16T15:07:55.193,-0.61,0.79,-0.85
30305,2025-09-16T15:07:55.203,-0.18,0.79,-0.73
30306,2025-09-16T15:07:55.213,-0.61,0.92,-0.67
30307,2025-09-16T15:07:55.223,-0.06,0.92,-0.43
30308,2025-09-16T15:07:55.233,0.55,0.85,-0.31
30309,2025-09-16T15:07:55.243,-0.12,0.92,-0.18
30310,2025-09-16T15:07:55.252,0.31,0.79,-0.06
30311,2025-09-16T15:07:55.262,0.18,0.79,0.0
30312,2025-09-16T15:07:55.272,-0.12,0.73,0.0
30313,2025-09-16T15:07:55.282,-0.18,0.67,0.06
30314,2025-09-16T15:07:55.291,-0.31,0.67,0.06
30315,2025-09-16T15:07:55.301,-0.55,0.67,-0.06
30316,2025-09-16T15:07:55.311,-0.55,0.67,-0.18
30317,2025-09-16T15:07:55.321,-0.61,0.73,-0.24
30318,2025-09-16T15:07:55.330,-0.67,0.85,-0.37
30319,2025-09-16T15:07:55.340,-0.67,0.92,-0.49
30320,2025-09-16T15:07:55.350,-0.61,0.98,-0.61
30321,2025-09-16T15:07:55.361,-0.49,0.98,-0.67
30322,2025-09-16T15:07:55.370,-0.49,1.04,-0.79
30323,2025-09-16T15:07:55.380,-0.49,0.98,-0.85
30324,2025-09-16T15:07:55.390,-0.37,0.92,-0.79
30325,2025-09-16T15:07:55.399,-0.31,0.85,-0.79
30326,2025-09-16T15:07:55.409,-0.31,0.79,-0.73
30327,2025-09-16T15:07:55.418,-0.24,0.73,-0.61
30328,2025-09-16T15:07:55.428,-0.18,0.79,-0.49
30329,2025-09-16T15:07:55.438,-0.31,0.85,-0.43
30330,2025-09-16T15:07:55.448,-0.24,0.85,-0.24
30331,2025-09-16T15:07:55.458,-0.18,0.92,-0.18
30332,2025-09-16T15:07:55.467,-0.31,0.92,-0.12
30333,2025-09-16T15:07:55.477,-0.31,0.92,0.0
30334,2025-09-16T15:07:55.487,-0.12,0.85,0.06
30335,2025-09-16T15:07:55.497,-0.37,0.79,0.06
30336,2025-09-16T15:07:55.507,-0.06,0.67,0.0
30337,2025-09-16T15:07:55.517,-0.31,0.73,-0.06
30338,2025-09-16T15:07:55.527,-0.37,0.73,-0.18
30339,2025-09-16T15:07:55.536,-0.18,0.73,-0.37
30340,2025-09-16T15:07:55.546,-0.55,0.79,-0.49
30341,2025-09-16T15:07:55.555,-0.43,0.85,-0.73
30342,2025-09-16T15:07:55.565,-0.92,0.92,-0.85
30343,2025-09-16T15:07:55.575,-1.04,0.98,-1.04
30344,2025-09-16T15:07:55.585,-1.28,1.04,-1.1
30345,2025-09-16T15:07:55.596,-0.92,0.98,-1.1
30346,2025-09-16T15:07:55.605,-0.73,0.98,-1.04
30347,2025-09-16T15:07:55.615,-0.31,0.92,-0.92
30348,2025-09-16T15:07:55.625,0.0,0.79,-0.73
30349,2025-09-16T15:07:55.634,0.0,0.73,-0.55
30350,2025-09-16T15:07:55.644,-0.06,0.67,-0.31
30351,2025-09-16T15:07:55.654,0.12,0.61,-0.06
30352,2025-09-16T15:07:55.664,0.24,0.61,0.12
30353,2025-09-16T15:07:55.674,0.31,0.61,0.31
30354,2025-09-16T15:07:55.683,0.24,0.67,0.37
30355,2025-09-16T15:07:55.692,0.12,0.73,0.49
30356,2025-09-16T15:07:55.702,0.61,0.67,0.49
30357,2025-09-16T15:07:55.712,0.55,0.73,0.31
30358,2025-09-16T15:07:55.722,-0.18,0.79,0.0
30359,2025-09-16T15:07:55.732,-1.16,0.85,-0.24
30360,2025-09-16T15:07:55.742,-1.53,0.85,-0.55
30361,2025-09-16T15:07:55.751,-1.71,0.85,-0.85
30362,2025-09-16T15:07:55.761,-1.46,0.79,-1.04
30363,2025-09-16T15:07:55.771,-1.16,0.73,-1.16
30364,2025-09-16T15:07:55.780,-0.61,0.67,-1.22
30365,2025-09-16T15:07:55.791,0.18,1.04,-0.92
30366,2025-09-16T15:07:55.800,2.32,0.55,-0.85
30367,2025-09-16T15:07:55.810,-0.98,0.79,-1.04
30368,2025-09-16T15:07:55.820,-0.37,0.73,-0.92
30369,2025-09-16T15:07:55.829,0.49,0.61,-0.73
30370,2025-09-16T15:07:55.840,-1.34,0.79,-0.67
30371,2025-09-16T15:07:55.850,-0.43,0.79,-0.18
30372,2025-09-16T15:07:55.860,2.14,0.49,0.18
30373,2025-09-16T15:07:55.869,0.67,0.61,0.12
30374,2025-09-16T15:07:55.879,-0.49,0.73,0.06
30375,2025-09-16T15:07:55.889,0.12,0.67,0.31
30376,2025-09-16T15:07:55.898,-1.59,0.79,-0.18
30377,2025-09-16T15:07:55.908,-1.28,1.16,1.46
30378,2025-09-16T15:07:55.918,9.89,0.73,3.54
30379,2025-09-16T15:07:55.927,3.36,0.73,2.01
30380,2025-09-16T15:07:55.938,-3.85,1.22,0.37
30381,2025-09-16T15:07:55.947,1.4,0.49,0.49
30382,2025-09-16T15:07:55.957,2.44,0.49,0.12
30383,2025-09-16T15:07:55.967,-2.38,0.67,-1.28
30384,2025-09-16T15:07:55.977,-2.5,0.79,-1.34
30385,2025-09-16T15:07:55.987,1.22,0.49,-0.73
30386,2025-09-16T15:07:55.996,0.55,0.73,-0.92
30387,2025-09-16T15:07:56.006,-0.73,0.85,-1.1
30388,2025-09-16T15:07:56.016,0.12,0.79,-1.1
30389,2025-09-16T15:07:56.027,-0.18,0.67,-1.22
30390,2025-09-16T15:07:56.035,-1.71,0.79,-1.16
30391,2025-09-16T15:07:56.045,-1.22,0.67,-0.92
30392,2025-09-16T15:07:56.055,-0.31,0.73,-0.06
30393,2025-09-16T15:07:56.065,2.08,0.67,0.92
30394,2025-09-16T15:07:56.074,2.81,0.67,1.83
30395,2025-09-16T15:07:56.084,3.78,0.73,2.2
30396,2025-09-16T15:07:56.094,3.48,0.92,1.83
30397,2025-09-16T15:07:56.104,1.71,0.98,1.53
30398,2025-09-16T15:07:56.114,1.95,0.98,1.28
30399,2025-09-16T15:07:56.123,2.08,0.85,1.04
30400,2025-09-16T15:07:56.133,1.46,0.92,0.98
30401,2025-09-16T15:07:56.143,2.38,0.79,0.37
30402,2025-09-16T15:07:56.153,0.18,0.98,-0.12
30403,2025-09-16T15:07:56.163,0.37,0.73,-0.73
30404,2025-09-16T15:07:56.173,-0.73,0.85,-0.98
30405,2025-09-16T15:07:56.182,0.24,0.85,-0.92
30406,2025-09-16T15:07:56.192,0.61,0.85,-0.79
30407,2025-09-16T15:07:56.202,-0.24,0.92,-0.79
30408,2025-09-16T15:07:56.212,-0.43,1.04,-0.67
30409,2025-09-16T15:07:56.221,0.24,0.92,-0.43
30410,2025-09-16T15:07:56.231,-0.31,0.98,-0.37
30411,2025-09-16T15:07:56.241,-0.43,0.98,-0.31
30412,2025-09-16T15:07:56.251,0.12,0.92,0.18
30413,2025-09-16T15:07:56.260,1.16,0.79,0.92
30414,2025-09-16T15:07:56.270,2.75,0.61,1.77
30415,2025-09-16T15:07:56.280,4.15,0.43,2.38
30416,2025-09-16T15:07:56.290,4.88,0.55,2.5
30417,2025-09-16T15:07:56.299,4.33,0.67,1.77
30418,2025-09-16T15:07:56.309,1.89,0.79,1.34
30419,2025-09-16T15:07:56.319,0.85,0.31,0.98
30420,2025-09-16T15:07:56.329,0.92,0.79,1.16
30421,2025-09-16T15:07:56.339,5.25,0.49,1.4
30422,2025-09-16T15:07:56.349,2.2,0.61,1.4
30423,2025-09-16T15:07:56.359,3.05,0.73,0.98
30424,2025-09-16T15:07:56.369,3.11,0.55,0.98
30425,2025-09-16T15:07:56.378,1.83,0.55,1.71
30426,2025-09-16T15:07:56.388,4.58,0.24,2.56
30427,2025-09-16T15:07:56.398,4.88,0.24,2.44
30428,2025-09-16T15:07:56.407,1.77,-0.06,1.59
30429,2025-09-16T15:07:56.417,1.53,0.12,1.04
30430,2025-09-16T15:07:56.427,-2.44,0.61,0.12
30431,2025-09-16T15:07:56.436,-2.56,0.49,-1.53
30432,2025-09-16T15:07:56.446,-3.91,0.49,-1.95
30433,2025-09-16T15:07:56.456,-2.26,0.55,-1.22
30434,2025-09-16T15:07:56.466,-1.4,0.43,-0.24
30435,2025-09-16T15:07:56.476,1.65,0.61,0.98
30436,2025-09-16T15:07:56.485,1.65,0.98,1.4
30437,2025-09-16T15:07:56.496,0.31,1.04,0.98
30438,2025-09-16T15:07:56.506,0.43,1.22,0.18
30439,2025-09-16T15:07:56.516,0.92,1.71,-0.24
30440,2025-09-16T15:07:56.526,-1.95,2.14,-0.61
30441,2025-09-16T15:07:56.535,-2.01,1.65,-0.98
30442,2025-09-16T15:07:56.545,-0.98,0.73,-0.61
30443,2025-09-16T15:07:56.555,1.46,0.43,-0.12
30444,2025-09-16T15:07:56.564,0.85,0.98,0.18
30445,2025-09-16T15:07:56.575,-2.26,1.83,-0.67
30446,2025-09-16T15:07:56.585,-5.74,1.34,-1.53
30447,2025-09-16T15:07:56.593,-0.67,0.55,-1.53
30448,2025-09-16T15:07:56.603,0.98,0.37,0.18
30449,2025-09-16T15:07:56.613,1.95,0.24,1.65
30450,2025-09-16T15:07:56.623,3.72,-0.24,2.44
30451,2025-09-16T15:07:56.633,1.65,-0.98,2.08
30452,2025-09-16T15:07:56.642,5.31,-1.59,3.23
30453,2025-09-16T15:07:56.652,5.43,-1.71,3.23
30454,2025-09-16T15:07:56.662,3.42,-0.85,2.93
30455,2025-09-16T15:07:56.672,1.4,0.06,2.14
30456,2025-09-16T15:07:56.682,-1.77,0.79,1.16
30457,2025-09-16T15:07:56.692,-0.18,1.22,1.34
30458,2025-09-16T15:07:56.702,2.93,1.89,2.99
30459,2025-09-16T15:07:56.711,1.46,2.26,0.85
30460,2025-09-16T15:07:56.721,-3.78,2.5,-0.79
30461,2025-09-16T15:07:56.731,-2.56,2.69,-2.2
30462,2025-09-16T15:07:56.741,-5.92,3.23,-1.53
30463,2025-09-16T15:07:56.751,-1.16,3.42,-0.18
30464,2025-09-16T15:07:56.761,-1.65,3.78,-0.31
30465,2025-09-16T15:07:56.770,-3.85,3.97,-1.1
30466,2025-09-16T15:07:56.780,-1.95,3.97,-2.93
30467,2025-09-16T15:07:56.790,-4.33,4.21,-1.53
30468,2025-09-16T15:07:56.799,-1.77,3.54,-0.49
30469,2025-09-16T15:07:56.810,-0.73,2.81,-0.43
30470,2025-09-16T15:07:56.819,1.95,3.05,1.1
30471,2025-09-16T15:07:56.829,2.62,2.44,2.81
30472,2025-09-16T15:07:56.839,0.31,1.22,1.46
30473,2025-09-16T15:07:56.848,1.77,0.67,1.22
30474,2025-09-16T15:07:56.858,1.1,1.89,0.79
30475,2025-09-16T15:07:56.868,-4.94,2.62,-1.71
30476,2025-09-16T15:07:56.877,-6.77,2.44,-2.75
30477,2025-09-16T15:07:56.887,-0.85,2.44,-0.67
30478,2025-09-16T15:07:56.898,-0.18,2.38,1.89
30479,2025-09-16T15:07:56.907,3.78,2.2,1.77
30480,2025-09-16T15:07:56.917,0.73,2.26,1.83
30481,2025-09-16T15:07:56.927,2.32,2.62,1.53
30482,2025-09-16T15:07:56.937,1.46,2.93,2.38
30483,2025-09-16T15:07:56.946,2.69,3.3,1.95
30484,2025-09-16T15:07:56.956,-0.92,4.21,1.46
30485,2025-09-16T15:07:56.966,-2.93,4.64,0.55
30486,2025-09-16T15:07:56.976,-0.43,4.33,0.12
30487,2025-09-16T15:07:56.986,-0.18,4.52,0.85
30488,2025-09-16T15:07:56.995,1.04,4.64,0.98
30489,2025-09-16T15:07:57.005,-2.38,5.13,0.31
30490,2025-09-16T15:07:57.014,0.31,6.41,0.79
30491,2025-09-16T15:07:57.024,-4.03,7.26,-1.34
30492,2025-09-16T15:07:57.036,-4.39,8.06,-1.4
30493,2025-09-16T15:07:57.043,-5.0,8.12,0.0
30494,2025-09-16T15:07:57.054,0.37,8.18,-0.67
30495,2025-09-16T15:07:57.063,-4.76,8.97,0.18
30496,2025-09-16T15:07:57.073,-2.14,9.16,0.43
30497,2025-09-16T15:07:57.083,-2.32,9.28,0.43
30498,2025-09-16T15:07:57.093,1.59,10.44,1.65
30499,2025-09-16T15:07:57.103,-1.77,11.9,1.4
