sample,timestamp,gyro_x,gyro_y,gyro_z
40000,2025-09-16T15:09:30.121,-0.61,0.92,0.12
40001,2025-09-16T15:09:30.131,0.06,0.73,-0.55
40002,2025-09-16T15:09:30.141,-0.49,0.73,-0.37
40003,2025-09-16T15:09:30.151,-0.31,0.79,0.06
40004,2025-09-16T15:09:30.161,-0.55,0.85,-0.31
40005,2025-09-16T15:09:30.170,-0.31,0.85,-0.18
40006,2025-09-16T15:09:30.180,-0.73,0.79,0.06
40007,2025-09-16T15:09:30.190,-0.31,0.85,-0.24
40008,2025-09-16T15:09:30.200,-0.43,0.79,-0.12
40009,2025-09-16T15:09:30.210,-0.24,0.79,-0.37
40010,2025-09-16T15:09:30.220,-0.31,0.67,0.06
40011,2025-09-16T15:09:30.229,-0.55,0.73,0.18
40012,2025-09-16T15:09:30.239,-0.18,0.79,-0.31
40013,2025-09-16T15:09:30.249,-0.18,0.67,-0.12
40014,2025-09-16T15:09:30.259,-0.49,0.79,0.37
40015,2025-09-16T15:09:30.269,-0.06,0.85,-0.24
40016,2025-09-16T15:09:30.278,0.06,0.79,-0.43
40017,2025-09-16T15:09:30.288,-0.24,0.73,0.49
40018,2025-09-16T15:09:30.298,1.16,0.79,0.31
40019,2025-09-16T15:09:30.308,0.85,0.73,-0.18
40020,2025-09-16T15:09:30.317,0.61,0.67,0.61
40021,2025-09-16T15:09:30.327,1.71,0.79,1.16
40022,2025-09-16T15:09:30.337,1.83,0.67,0.37
40023,2025-09-16T15:09:30.347,2.01,0.61,0.73
40024,2025-09-16T15:09:30.356,3.85,0.61,1.34
40025,2025-09-16T15:09:30.366,7.32,0.67,1.22
40026,2025-09-16T15:09:30.376,2.93,0.61,1.59
40027,2025-09-16T15:09:30.386,4.09,0.67,1.83
40028,2025-09-16T15:09:30.395,4.27,0.73,1.34
40029,2025-09-16T15:09:30.405,2.44,0.67,0.85
40030,2025-09-16T15:09:30.415,2.44,0.73,0.92
40031,2025-09-16T15:09:30.425,2.01,0.79,0.67
40032,2025-09-16T15:09:30.434,1.77,0.73,0.61
40033,2025-09-16T15:09:30.444,3.23,0.73,0.73
40034,2025-09-16T15:09:30.454,9.09,0.92,0.67
40035,2025-09-16T15:09:30.464,6.04,-0.67,3.6
40036,2025-09-16T15:09:30.474,18.07,0.18,9.28
40037,2025-09-16T15:09:30.484,9.52,0.12,3.23
40038,2025-09-16T15:09:30.494,4.82,-0.18,1.16
40039,2025-09-16T15:09:30.504,6.04,0.67,3.72
40040,2025-09-16T15:09:30.513,11.23,0.92,3.72
40041,2025-09-16T15:09:30.523,1.34,1.04,0.61
40042,2025-09-16T15:09:30.533,2.81,0.73,2.44
40043,2025-09-16T15:09:30.543,4.33,0.79,1.53
40044,2025-09-16T15:09:30.552,3.66,0.79,0.43
40045,2025-09-16T15:09:30.562,0.31,0.73,-0.37
40046,2025-09-16T15:09:30.572,0.24,0.43,-0.12
40047,2025-09-16T15:09:30.582,-1.34,0.55,0.0
40048,2025-09-16T15:09:30.592,0.18,0.61,-0.43
40049,2025-09-16T15:09:30.602,0.0,0.55,-0.12
40050,2025-09-16T15:09:30.611,-0.61,0.73,0.49
40051,2025-09-16T15:09:30.621,-0.12,1.04,0.0
40052,2025-09-16T15:09:30.631,0.43,0.98,-0.37
40053,2025-09-16T15:09:30.640,-0.55,0.98,0.73
40054,2025-09-16T15:09:30.650,-1.04,1.22,0.67
40055,2025-09-16T15:09:30.660,0.61,1.04,-0.61
40056,2025-09-16T15:09:30.670,-0.55,0.85,0.18
40057,2025-09-16T15:09:30.680,-1.28,1.04,0.55
40058,2025-09-16T15:09:30.689,0.18,0.92,-0.85
40059,2025-09-16T15:09:30.699,-0.18,0.55,-0.12
40060,2025-09-16T15:09:30.709,-1.34,0.79,0.55
40061,2025-09-16T15:09:30.719,0.06,0.85,-0.92
40062,2025-09-16T15:09:30.729,0.31,0.55,-0.55
40063,2025-09-16T15:09:30.739,-1.59,0.79,0.92
40064,2025-09-16T15:09:30.749,-0.73,0.98,-0.12
40065,2025-09-16T15:09:30.758,0.31,0.92,-0.67
40066,2025-09-16T15:09:30.768,-0.98,0.92,0.79
40067,2025-09-16T15:09:30.778,-0.79,1.1,0.18
40068,2025-09-16T15:09:30.788,0.49,1.04,-1.04
40069,2025-09-16T15:09:30.797,-0.31,0.79,0.12
40070,2025-09-16T15:09:30.807,-0.85,0.98,0.12
40071,2025-09-16T15:09:30.817,-0.06,0.85,-0.73
40072,2025-09-16T15:09:30.826,-0.24,0.61,0.06
40073,2025-09-16T15:09:30.836,-0.61,0.73,-0.06
40074,2025-09-16T15:09:30.846,-0.18,0.79,-0.79
40075,2025-09-16T15:09:30.856,-0.31,0.67,-0.12
40076,2025-09-16T15:09:30.865,-0.73,0.85,0.0
40077,2025-09-16T15:09:30.875,-0.12,0.92,-0.31
40078,2025-09-16T15:09:30.885,0.37,0.92,-0.12
40079,2025-09-16T15:09:30.895,0.24,0.85,0.18
40080,2025-09-16T15:09:30.905,0.12,0.79,0.31
40081,2025-09-16T15:09:30.914,0.37,0.79,0.12
40082,2025-09-16T15:09:30.924,0.0,0.73,0.18
40083,2025-09-16T15:09:30.934,-0.12,0.67,0.06
40084,2025-09-16T15:09:30.943,0.18,0.61,0.24
40085,2025-09-16T15:09:30.954,0.43,0.73,0.0
40086,2025-09-16T15:09:30.964,-0.06,0.67,0.18
40087,2025-09-16T15:09:30.973,0.18,0.73,0.31
40088,2025-09-16T15:09:30.983,0.18,0.85,-0.12
40089,2025-09-16T15:09:30.993,-0.18,0.79,-0.24
40090,2025-09-16T15:09:31.002,0.12,0.85,0.06
40091,2025-09-16T15:09:31.012,0.79,0.85,0.24
40092,2025-09-16T15:09:31.022,0.55,0.79,0.0
40093,2025-09-16T15:09:31.032,0.92,0.73,0.43
40094,2025-09-16T15:09:31.042,4.03,0.67,1.22
40095,2025-09-16T15:09:31.052,7.2,0.67,1.83
40096,2025-09-16T15:09:31.061,7.08,0.55,2.14
40097,2025-09-16T15:09:31.071,3.85,0.67,1.83
40098,2025-09-16T15:09:31.081,3.36,0.67,1.22
40099,2025-09-16T15:09:31.091,2.2,0.67,0.43
40100,2025-09-16T15:09:31.101,2.08,0.73,-0.18
40101,2025-09-16T15:09:31.110,1.1,0.67,0.43
40102,2025-09-16T15:09:31.120,0.61,0.67,0.85
40103,2025-09-16T15:09:31.130,1.53,0.79,0.24
40104,2025-09-16T15:09:31.139,1.1,0.73,0.0
40105,2025-09-16T15:09:31.149,0.79,0.67,0.55
40106,2025-09-16T15:09:31.159,0.98,0.85,0.24
40107,2025-09-16T15:09:31.168,1.04,0.79,0.06
40108,2025-09-16T15:09:31.178,1.22,0.73,0.55
40109,2025-09-16T15:09:31.188,2.38,0.73,0.92
40110,2025-09-16T15:09:31.198,1.46,0.79,0.37
40111,2025-09-16T15:09:31.208,1.22,0.67,0.43
40112,2025-09-16T15:09:31.217,4.46,0.67,1.04
40113,2025-09-16T15:09:31.227,4.88,0.61,1.34
40114,2025-09-16T15:09:31.237,2.26,0.61,1.28
40115,2025-09-16T15:09:31.251,1.95,0.73,0.85
40116,2025-09-16T15:09:31.257,1.04,0.73,0.55
40117,2025-09-16T15:09:31.266,0.24,0.79,0.31
40118,2025-09-16T15:09:31.276,0.18,0.79,0.24
40119,2025-09-16T15:09:31.286,0.73,0.79,0.12
40120,2025-09-16T15:09:31.296,0.79,0.73,0.37
40121,2025-09-16T15:09:31.307,1.4,0.79,0.61
40122,2025-09-16T15:09:31.316,1.89,0.73,0.92
40123,2025-09-16T15:09:31.325,1.83,0.67,0.79
40124,2025-09-16T15:09:31.335,0.79,0.73,0.18
40125,2025-09-16T15:09:31.345,0.85,0.73,0.0
40126,2025-09-16T15:09:31.354,0.37,0.79,-0.12
40127,2025-09-16T15:09:31.364,0.24,0.73,-0.12
40128,2025-09-16T15:09:31.374,0.49,0.73,0.06
40129,2025-09-16T15:09:31.384,1.65,0.79,0.43
40130,2025-09-16T15:09:31.393,1.59,0.67,0.79
40131,2025-09-16T15:09:31.404,0.85,0.73,0.67
40132,2025-09-16T15:09:31.413,1.83,0.73,0.61
40133,2025-09-16T15:09:31.423,2.62,0.67,0.61
40134,2025-09-16T15:09:31.433,3.36,0.67,0.85
40135,2025-09-16T15:09:31.443,4.46,0.61,1.46
40136,2025-09-16T15:09:31.453,2.44,0.67,1.34
40137,2025-09-16T15:09:31.463,1.53,0.73,0.73
40138,2025-09-16T15:09:31.473,0.67,0.79,0.24
40139,2025-09-16T15:09:31.482,0.67,0.73,0.18
40140,2025-09-16T15:09:31.492,0.49,0.73,0.12
40141,2025-09-16T15:09:31.502,0.43,0.79,0.18
40142,2025-09-16T15:09:31.512,0.55,0.79,0.31
40143,2025-09-16T15:09:31.522,0.67,0.79,0.37
40144,2025-09-16T15:09:31.531,0.55,0.79,0.37
40145,2025-09-16T15:09:31.541,0.37,0.73,0.31
40146,2025-09-16T15:09:31.550,0.24,0.73,0.12
40147,2025-09-16T15:09:31.561,0.31,0.73,0.12
40148,2025-09-16T15:09:31.570,0.49,0.73,0.31
40149,2025-09-16T15:09:31.580,0.73,0.79,0.37
40150,2025-09-16T15:09:31.590,0.67,0.79,0.31
40151,2025-09-16T15:09:31.599,0.85,0.79,0.31
40152,2025-09-16T15:09:31.608,2.38,0.79,0.73
40153,2025-09-16T15:09:31.619,5.13,0.79,1.34
40154,2025-09-16T15:09:31.629,6.77,0.73,1.89
40155,2025-09-16T15:09:31.638,7.2,0.61,2.5
40156,2025-09-16T15:09:31.649,0.98,0.79,2.26
40157,2025-09-16T15:09:31.658,1.16,0.98,1.16
40158,2025-09-16T15:09:31.668,-0.06,0.98,0.06
40159,2025-09-16T15:09:31.678,-0.49,0.79,-0.06
40160,2025-09-16T15:09:31.688,-0.37,0.73,0.0
40161,2025-09-16T15:09:31.698,-0.43,0.55,-0.18
40162,2025-09-16T15:09:31.707,-0.61,0.43,-0.31
40163,2025-09-16T15:09:31.718,-0.49,0.31,-0.06
40164,2025-09-16T15:09:31.727,0.18,0.37,0.0
40165,2025-09-16T15:09:31.737,1.53,0.43,0.24
40166,2025-09-16T15:09:31.746,1.53,0.49,0.55
40167,2025-09-16T15:09:31.756,1.65,0.67,0.92
40168,2025-09-16T15:09:31.766,3.36,0.79,1.1
40169,2025-09-16T15:09:31.776,2.56,0.98,0.73
40170,2025-09-16T15:09:31.785,2.32,0.98,0.55
40171,2025-09-16T15:09:31.795,2.14,0.98,0.55
40172,2025-09-16T15:09:31.805,3.11,0.92,0.67
40173,2025-09-16T15:09:31.815,5.31,0.79,1.22
40174,2025-09-16T15:09:31.825,2.32,0.73,1.53
40175,2025-09-16T15:09:31.834,1.53,0.73,1.34
40176,2025-09-16T15:09:31.844,2.93,0.73,1.22
40177,2025-09-16T15:09:31.855,2.75,0.67,1.4
40178,2025-09-16T15:09:31.864,2.5,0.67,1.16
40179,2025-09-16T15:09:31.874,1.77,0.73,0.55
40180,2025-09-16T15:09:31.884,0.49,0.85,0.0
40181,2025-09-16T15:09:31.894,-0.12,0.98,-0.24
40182,2025-09-16T15:09:31.903,0.31,1.04,-0.24
40183,2025-09-16T15:09:31.913,0.31,1.04,0.0
40184,2025-09-16T15:09:31.923,0.61,1.04,0.18
40185,2025-09-16T15:09:31.932,0.55,0.92,0.31
40186,2025-09-16T15:09:31.942,0.55,0.85,0.18
40187,2025-09-16T15:09:31.952,0.43,0.67,0.18
40188,2025-09-16T15:09:31.962,0.61,0.55,0.31
40189,2025-09-16T15:09:31.972,0.98,0.55,0.31
40190,2025-09-16T15:09:31.981,2.32,0.49,0.49
40191,2025-09-16T15:09:31.991,2.44,0.49,0.67
40192,2025-09-16T15:09:32.001,1.65,0.61,0.61
40193,2025-09-16T15:09:32.011,1.95,0.73,0.61
40194,2025-09-16T15:09:32.020,3.17,0.85,0.92
40195,2025-09-16T15:09:32.031,5.62,0.79,1.53
40196,2025-09-16T15:09:32.040,4.46,0.85,2.01
40197,2025-09-16T15:09:32.050,6.71,0.79,2.44
40198,2025-09-16T15:09:32.060,4.64,0.73,2.01
40199,2025-09-16T15:09:32.069,3.85,0.73,1.34
40200,2025-09-16T15:09:32.079,2.87,0.67,0.73
40201,2025-09-16T15:09:32.089,1.34,0.55,0.24
40202,2025-09-16T15:09:32.099,2.01,0.55,0.31
40203,2025-09-16T15:09:32.109,6.1,0.49,1.22
40204,2025-09-16T15:09:32.119,3.11,0.43,1.77
40205,2025-09-16T15:09:32.129,0.79,0.67,0.98
40206,2025-09-16T15:09:32.138,0.43,0.79,0.24
40207,2025-09-16T15:09:32.148,0.55,0.85,0.24
40208,2025-09-16T15:09:32.158,1.53,0.92,0.49
40209,2025-09-16T15:09:32.168,2.87,0.92,0.85
40210,2025-09-16T15:09:32.177,9.03,0.92,1.95
40211,2025-09-16T15:09:32.187,9.77,0.67,3.42
40212,2025-09-16T15:09:32.197,9.46,0.61,3.85
40213,2025-09-16T15:09:32.207,5.43,0.67,2.69
40214,2025-09-16T15:09:32.216,3.72,0.67,1.1
40215,2025-09-16T15:09:32.226,0.12,0.73,-0.43
40216,2025-09-16T15:09:32.237,0.24,0.67,-0.43
40217,2025-09-16T15:09:32.246,0.24,0.79,-0.43
40218,2025-09-16T15:09:32.255,0.18,0.79,-0.43
40219,2025-09-16T15:09:32.265,0.06,0.85,-0.37
40220,2025-09-16T15:09:32.274,-0.12,0.85,-0.31
40221,2025-09-16T15:09:32.285,-0.37,0.79,-0.37
40222,2025-09-16T15:09:32.294,-0.49,0.79,-0.31
40223,2025-09-16T15:09:32.304,-0.49,0.73,-0.24
40224,2025-09-16T15:09:32.314,-0.55,0.67,-0.06
40225,2025-09-16T15:09:32.324,-0.37,0.67,-0.12
40226,2025-09-16T15:09:32.334,-0.31,0.67,-0.12
40227,2025-09-16T15:09:32.343,-0.18,0.79,-0.24
40228,2025-09-16T15:09:32.354,-0.06,0.79,-0.12
40229,2025-09-16T15:09:32.363,0.0,0.92,-0.31
40230,2025-09-16T15:09:32.374,-0.12,0.85,-0.06
40231,2025-09-16T15:09:32.383,-0.24,0.92,-0.12
40232,2025-09-16T15:09:32.393,-0.12,0.85,-0.24
40233,2025-09-16T15:09:32.403,-0.31,0.79,-0.24
40234,2025-09-16T15:09:32.412,-0.43,0.67,-0.18
40235,2025-09-16T15:09:32.422,-0.43,0.73,-0.31
40236,2025-09-16T15:09:32.431,-0.49,0.73,-0.37
40237,2025-09-16T15:09:32.441,-0.55,0.79,-0.43
40238,2025-09-16T15:09:32.452,-0.55,0.79,-0.31
40239,2025-09-16T15:09:32.461,-0.43,0.85,-0.31
40240,2025-09-16T15:09:32.471,-0.37,0.92,-0.24
40241,2025-09-16T15:09:32.481,-0.31,0.92,-0.12
40242,2025-09-16T15:09:32.491,-0.24,0.85,-0.12
40243,2025-09-16T15:09:32.501,-0.24,0.79,-0.06
40244,2025-09-16T15:09:32.511,-0.18,0.73,-0.24
40245,2025-09-16T15:09:32.520,-0.24,0.67,-0.18
40246,2025-09-16T15:09:32.530,-0.24,0.67,-0.37
40247,2025-09-16T15:09:32.540,-0.24,0.67,-0.37
40248,2025-09-16T15:09:32.549,-0.24,0.85,-0.24
40249,2025-09-16T15:09:32.559,-0.37,0.92,-0.06
40250,2025-09-16T15:09:32.569,-0.43,0.98,0.0
40251,2025-09-16T15:09:32.578,-0.37,1.04,-0.18
40252,2025-09-16T15:09:32.588,-0.37,0.98,-0.18
40253,2025-09-16T15:09:32.598,-0.43,0.98,-0.24
40254,2025-09-16T15:09:32.608,-0.43,0.92,-0.37
40255,2025-09-16T15:09:32.618,-0.55,0.79,-0.31
40256,2025-09-16T15:09:32.628,-0.55,0.73,-0.37
40257,2025-09-16T15:09:32.637,-0.49,0.67,-0.43
40258,2025-09-16T15:09:32.648,-0.43,0.67,-0.31
40259,2025-09-16T15:09:32.657,-0.43,0.73,-0.37
40260,2025-09-16T15:09:32.667,-0.37,0.79,-0.31
40261,2025-09-16T15:09:32.677,-0.37,0.85,-0.18
40262,2025-09-16T15:09:32.686,-0.37,0.92,-0.18
40263,2025-09-16T15:09:32.696,-0.24,0.98,-0.24
40264,2025-09-16T15:09:32.706,-0.24,0.98,-0.31
40265,2025-09-16T15:09:32.716,-0.24,0.92,-0.18
40266,2025-09-16T15:09:32.726,-0.24,0.92,-0.18
40267,2025-09-16T15:09:32.735,-0.24,0.79,-0.24
40268,2025-09-16T15:09:32.745,-0.31,0.79,-0.12
40269,2025-09-16T15:09:32.755,-0.31,0.79,-0.12
40270,2025-09-16T15:09:32.765,-0.31,0.73,-0.24
40271,2025-09-16T15:09:32.775,-0.37,0.73,-0.24
40272,2025-09-16T15:09:32.785,-0.37,0.79,-0.31
40273,2025-09-16T15:09:32.794,-0.37,0.85,-0.43
40274,2025-09-16T15:09:32.804,-0.49,0.85,-0.37
40275,2025-09-16T15:09:32.814,-0.43,0.85,-0.31
40276,2025-09-16T15:09:32.824,-0.18,0.85,-0.24
40277,2025-09-16T15:09:32.834,-0.12,0.85,-0.24
40278,2025-09-16T15:09:32.843,-0.06,0.85,-0.31
40279,2025-09-16T15:09:32.852,-0.18,0.79,-0.18
40280,2025-09-16T15:09:32.862,-0.12,0.79,-0.18
40281,2025-09-16T15:09:32.873,-0.12,0.79,-0.12
40282,2025-09-16T15:09:32.882,-0.12,0.85,-0.12
40283,2025-09-16T15:09:32.892,-0.06,0.79,-0.12
40284,2025-09-16T15:09:32.902,-0.06,0.85,-0.06
40285,2025-09-16T15:09:32.912,-0.06,0.85,-0.12
40286,2025-09-16T15:09:32.922,-0.12,0.85,-0.18
40287,2025-09-16T15:09:32.931,-0.06,0.92,-0.18
40288,2025-09-16T15:09:32.942,-0.12,0.92,-0.12
40289,2025-09-16T15:09:32.951,-0.12,0.92,-0.24
40290,2025-09-16T15:09:32.961,-0.12,0.85,-0.24
40291,2025-09-16T15:09:32.971,-0.18,0.79,-0.18
40292,2025-09-16T15:09:32.981,-0.06,0.79,-0.12
40293,2025-09-16T15:09:32.990,0.0,0.73,-0.06
40294,2025-09-16T15:09:33.000,0.12,0.73,-0.06
40295,2025-09-16T15:09:33.010,0.12,0.73,0.0
40296,2025-09-16T15:09:33.020,-0.06,0.79,-0.06
40297,2025-09-16T15:09:33.029,0.06,0.79,-0.06
40298,2025-09-16T15:09:33.039,0.49,0.79,0.0
40299,2025-09-16T15:09:33.048,4.21,0.85,0.79
40300,2025-09-16T15:09:33.058,6.84,0.73,1.95
40301,2025-09-16T15:09:33.068,-0.49,0.85,0.98
40302,2025-09-16T15:09:33.078,0.0,0.85,-0.43
40303,2025-09-16T15:09:33.088,-0.18,0.79,-0.18
40304,2025-09-16T15:09:33.097,-0.31,0.79,-0.37
40305,2025-09-16T15:09:33.107,-0.24,0.73,-0.31
40306,2025-09-16T15:09:33.117,-0.37,0.73,-0.18
40307,2025-09-16T15:09:33.127,-0.31,0.79,-0.31
40308,2025-09-16T15:09:33.136,-0.31,0.85,-0.37
40309,2025-09-16T15:09:33.146,-0.31,0.79,-0.24
40310,2025-09-16T15:09:33.156,-0.49,0.85,-0.24
40311,2025-09-16T15:09:33.166,-0.43,0.85,-0.37
40312,2025-09-16T15:09:33.175,-0.31,0.85,-0.24
40313,2025-09-16T15:09:33.185,-0.43,0.79,-0.24
40314,2025-09-16T15:09:33.195,-0.37,0.79,-0.24
40315,2025-09-16T15:09:33.205,-0.43,0.79,-0.31
40316,2025-09-16T15:09:33.215,-0.43,0.79,-0.24
40317,2025-09-16T15:09:33.224,-0.43,0.67,-0.24
40318,2025-09-16T15:09:33.234,-0.31,0.73,-0.37
40319,2025-09-16T15:09:33.244,-0.31,0.67,-0.49
40320,2025-09-16T15:09:33.254,-0.24,0.61,-0.18
40321,2025-09-16T15:09:33.264,-0.61,0.67,0.79
40322,2025-09-16T15:09:33.274,-0.31,0.85,0.49
40323,2025-09-16T15:09:33.284,0.49,0.79,-0.85
40324,2025-09-16T15:09:33.294,0.12,0.73,-0.61
40325,2025-09-16T15:09:33.304,-0.61,0.67,0.24
40326,2025-09-16T15:09:33.313,-0.61,0.79,-0.06
40327,2025-09-16T15:09:33.323,-0.43,0.79,-0.55
40328,2025-09-16T15:09:33.333,-0.55,0.73,-0.37
40329,2025-09-16T15:09:33.343,-0.67,0.85,-0.31
40330,2025-09-16T15:09:33.352,-0.43,0.85,-0.37
40331,2025-09-16T15:09:33.362,-0.37,0.79,-0.24
40332,2025-09-16T15:09:33.371,-0.31,0.79,-0.12
40333,2025-09-16T15:09:33.381,-0.06,0.73,-0.12
40334,2025-09-16T15:09:33.391,-0.06,0.67,-0.31
40335,2025-09-16T15:09:33.401,-0.18,0.61,-0.18
40336,2025-09-16T15:09:33.411,-0.24,0.67,-0.12
40337,2025-09-16T15:09:33.420,-0.12,0.67,-0.24
40338,2025-09-16T15:09:33.431,0.0,0.79,-0.24
40339,2025-09-16T15:09:33.441,-0.12,0.79,0.06
40340,2025-09-16T15:09:33.450,-0.18,0.85,-0.06
40341,2025-09-16T15:09:33.460,-0.06,0.92,-0.31
40342,2025-09-16T15:09:33.470,-0.18,0.98,-0.18
40343,2025-09-16T15:09:33.480,-0.37,0.92,-0.06
40344,2025-09-16T15:09:33.489,-0.43,0.92,-0.24
40345,2025-09-16T15:09:33.499,-0.43,0.85,-0.37
40346,2025-09-16T15:09:33.509,-0.61,0.79,-0.31
40347,2025-09-16T15:09:33.519,-0.55,0.73,-0.49
40348,2025-09-16T15:09:33.528,-0.79,0.67,-0.37
40349,2025-09-16T15:09:33.538,-0.61,0.73,-0.37
40350,2025-09-16T15:09:33.547,-0.67,0.73,-0.37
40351,2025-09-16T15:09:33.558,-0.43,0.79,-0.37
40352,2025-09-16T15:09:33.568,-0.37,0.85,-0.31
40353,2025-09-16T15:09:33.578,-0.37,0.92,-0.18
40354,2025-09-16T15:09:33.587,-0.24,0.92,-0.24
40355,2025-09-16T15:09:33.597,-0.18,0.85,-0.24
40356,2025-09-16T15:09:33.607,-0.12,0.85,-0.18
40357,2025-09-16T15:09:33.617,-0.06,0.85,-0.12
40358,2025-09-16T15:09:33.627,-0.18,0.92,0.0
40359,2025-09-16T15:09:33.636,0.24,0.85,-0.12
40360,2025-09-16T15:09:33.646,-0.06,0.79,-0.18
40361,2025-09-16T15:09:33.656,-0.12,0.79,-0.24
40362,2025-09-16T15:09:33.665,-0.37,0.73,-0.12
40363,2025-09-16T15:09:33.675,-0.24,0.79,-0.24
40364,2025-09-16T15:09:33.685,-0.12,0.79,-0.31
40365,2025-09-16T15:09:33.695,-0.06,0.79,-0.24
40366,2025-09-16T15:09:33.706,0.06,0.85,-0.06
40367,2025-09-16T15:09:33.714,1.28,0.92,0.18
40368,2025-09-16T15:09:33.724,6.96,0.67,1.28
40369,2025-09-16T15:09:33.734,6.1,0.55,2.26
40370,2025-09-16T15:09:33.744,1.04,0.73,1.53
40371,2025-09-16T15:09:33.754,1.16,0.73,0.31
40372,2025-09-16T15:09:33.764,0.67,0.73,-0.43
40373,2025-09-16T15:09:33.774,0.18,0.73,-0.43
40374,2025-09-16T15:09:33.783,0.18,0.67,-0.12
40375,2025-09-16T15:09:33.793,0.31,0.73,-0.06
40376,2025-09-16T15:09:33.803,0.92,0.73,0.06
40377,2025-09-16T15:09:33.813,5.86,0.67,0.92
40378,2025-09-16T15:09:33.822,3.11,0.67,1.53
40379,2025-09-16T15:09:33.832,1.1,0.85,0.92
40380,2025-09-16T15:09:33.842,2.14,0.85,0.31
40381,2025-09-16T15:09:33.851,1.1,0.92,0.18
40382,2025-09-16T15:09:33.862,1.16,0.85,0.18
40383,2025-09-16T15:09:33.871,1.4,0.85,0.31
40384,2025-09-16T15:09:33.881,3.85,0.73,0.73
40385,2025-09-16T15:09:33.891,8.12,0.55,1.65
40386,2025-09-16T15:09:33.901,3.23,0.55,2.08
40387,2025-09-16T15:09:33.911,0.12,0.67,0.92
40388,2025-09-16T15:09:33.920,-0.18,0.73,-0.31
40389,2025-09-16T15:09:33.930,0.12,0.73,-0.67
40390,2025-09-16T15:09:33.940,-0.24,0.67,-0.43
40391,2025-09-16T15:09:33.949,-0.37,0.79,-0.31
40392,2025-09-16T15:09:33.959,-0.37,0.85,-0.43
40393,2025-09-16T15:09:33.969,-0.31,0.85,-0.31
40394,2025-09-16T15:09:33.979,0.0,0.85,0.0
40395,2025-09-16T15:09:33.988,0.37,0.92,-0.12
40396,2025-09-16T15:09:33.998,0.24,0.79,-0.06
40397,2025-09-16T15:09:34.008,0.31,0.79,-0.24
40398,2025-09-16T15:09:34.018,0.06,0.79,-0.55
40399,2025-09-16T15:09:34.028,-0.06,0.73,-0.31
40400,2025-09-16T15:09:34.037,0.06,0.73,-0.37
40401,2025-09-16T15:09:34.047,0.18,0.79,-0.49
40402,2025-09-16T15:09:34.058,0.67,0.85,-0.18
40403,2025-09-16T15:09:34.067,-0.06,0.85,-0.31
40404,2025-09-16T15:09:34.078,0.61,0.92,-0.31
40405,2025-09-16T15:09:34.087,0.24,0.92,-0.43
40406,2025-09-16T15:09:34.096,0.31,0.79,-0.18
40407,2025-09-16T15:09:34.107,-0.24,0.79,-0.24
40408,2025-09-16T15:09:34.116,-0.24,0.67,-0.49
40409,2025-09-16T15:09:34.126,-0.55,0.61,-0.31
40410,2025-09-16T15:09:34.136,-0.55,0.67,-0.49
40411,2025-09-16T15:09:34.145,-0.12,0.73,-0.37
40412,2025-09-16T15:09:34.156,-0.24,0.85,-0.43
40413,2025-09-16T15:09:34.165,0.18,0.92,-0.43
40414,2025-09-16T15:09:34.175,-0.12,0.98,-0.24
40415,2025-09-16T15:09:34.185,0.55,1.04,-0.31
40416,2025-09-16T15:09:34.194,0.0,0.92,-0.37
40417,2025-09-16T15:09:34.204,0.0,0.85,-0.31
40418,2025-09-16T15:09:34.214,0.0,0.85,-0.31
40419,2025-09-16T15:09:34.224,0.12,0.85,-0.43
40420,2025-09-16T15:09:34.234,0.43,0.73,-0.24
40421,2025-09-16T15:09:34.243,0.37,0.79,-0.31
40422,2025-09-16T15:09:34.253,0.43,0.79,-0.37
40423,2025-09-16T15:09:34.263,0.31,0.79,-0.31
40424,2025-09-16T15:09:34.272,0.06,0.85,-0.37
40425,2025-09-16T15:09:34.282,-0.06,0.85,-0.43
40426,2025-09-16T15:09:34.292,-0.24,0.85,-0.37
40427,2025-09-16T15:09:34.302,-0.43,0.79,-0.31
40428,2025-09-16T15:09:34.311,-0.43,0.85,-0.43
40429,2025-09-16T15:09:34.321,-0.31,0.79,-0.37
40430,2025-09-16T15:09:34.331,-0.31,0.79,-0.37
40431,2025-09-16T15:09:34.341,-0.12,0.85,-0.43
40432,2025-09-16T15:09:34.351,-0.12,0.79,-0.43
40433,2025-09-16T15:09:34.360,-0.43,0.79,-0.43
40434,2025-09-16T15:09:34.370,-0.43,0.73,-0.43
40435,2025-09-16T15:09:34.380,-0.31,0.79,-0.43
40436,2025-09-16T15:09:34.390,-0.37,0.79,-0.37
40437,2025-09-16T15:09:34.400,-0.12,0.92,-0.31
40438,2025-09-16T15:09:34.410,0.06,0.92,-0.31
40439,2025-09-16T15:09:34.420,0.31,0.92,-0.31
40440,2025-09-16T15:09:34.429,0.37,0.92,-0.24
40441,2025-09-16T15:09:34.439,0.37,0.85,-0.37
40442,2025-09-16T15:09:34.448,0.24,0.79,-0.37
40443,2025-09-16T15:09:34.458,0.12,0.73,-0.37
40444,2025-09-16T15:09:34.468,0.0,0.73,-0.37
40445,2025-09-16T15:09:34.478,-0.18,0.79,-0.37
40446,2025-09-16T15:09:34.488,-0.24,0.79,-0.43
40447,2025-09-16T15:09:34.497,-0.43,0.85,-0.43
40448,2025-09-16T15:09:34.507,-0.49,0.85,-0.43
40449,2025-09-16T15:09:34.517,-0.31,0.85,-0.43
40450,2025-09-16T15:09:34.527,-0.37,0.85,-0.37
40451,2025-09-16T15:09:34.537,-0.31,0.79,-0.37
40452,2025-09-16T15:09:34.547,-0.37,0.79,-0.43
40453,2025-09-16T15:09:34.556,-0.31,0.79,-0.37
40454,2025-09-16T15:09:34.565,-0.24,0.79,-0.43
40455,2025-09-16T15:09:34.575,-0.24,0.79,-0.37
40456,2025-09-16T15:09:34.586,-0.24,0.73,-0.37
40457,2025-09-16T15:09:34.596,-0.18,0.79,-0.37
40458,2025-09-16T15:09:34.606,-0.06,0.79,-0.37
40459,2025-09-16T15:09:34.617,0.18,0.79,-0.37
40460,2025-09-16T15:09:34.625,0.24,0.79,-0.37
40461,2025-09-16T15:09:34.636,0.18,0.79,-0.37
40462,2025-09-16T15:09:34.645,0.06,0.85,-0.31
40463,2025-09-16T15:09:34.655,0.0,0.79,-0.37
40464,2025-09-16T15:09:34.664,-0.18,0.85,-0.43
40465,2025-09-16T15:09:34.674,-0.31,0.85,-0.37
40466,2025-09-16T15:09:34.688,-0.49,0.85,-0.37
40467,2025-09-16T15:09:34.693,-0.55,0.85,-0.37
40468,2025-09-16T15:09:34.704,-0.61,0.92,-0.37
40469,2025-09-16T15:09:34.713,-0.73,0.85,-0.37
40470,2025-09-16T15:09:34.723,-0.67,0.79,-0.37
40471,2025-09-16T15:09:34.733,-0.61,0.79,-0.43
40472,2025-09-16T15:09:34.742,-0.43,0.73,-0.37
40473,2025-09-16T15:09:34.753,-0.31,0.79,-0.37
40474,2025-09-16T15:09:34.762,-0.24,0.79,-0.43
40475,2025-09-16T15:09:34.772,-0.18,0.79,-0.37
40476,2025-09-16T15:09:34.782,-0.06,0.79,-0.37
40477,2025-09-16T15:09:34.792,0.06,0.85,-0.37
40478,2025-09-16T15:09:34.801,0.12,0.85,-0.37
40479,2025-09-16T15:09:34.812,0.0,0.85,-0.37
40480,2025-09-16T15:09:34.821,-0.06,0.85,-0.37
40481,2025-09-16T15:09:34.831,-0.31,0.92,-0.43
40482,2025-09-16T15:09:34.841,-0.37,0.92,-0.43
40483,2025-09-16T15:09:34.850,-0.55,0.85,-0.43
40484,2025-09-16T15:09:34.860,-0.61,0.79,-0.37
40485,2025-09-16T15:09:34.870,-0.79,0.85,-0.49
40486,2025-09-16T15:09:34.879,-0.79,0.79,-0.43
40487,2025-09-16T15:09:34.889,-0.92,0.79,-0.43
40488,2025-09-16T15:09:34.900,-0.85,0.73,-0.43
40489,2025-09-16T15:09:34.909,-0.85,0.79,-0.43
40490,2025-09-16T15:09:34.919,-0.73,0.73,-0.49
40491,2025-09-16T15:09:34.929,-0.67,0.79,-0.49
40492,2025-09-16T15:09:34.939,-0.55,0.73,-0.43
40493,2025-09-16T15:09:34.948,-0.49,0.79,-0.37
40494,2025-09-16T15:09:34.958,-0.43,0.73,-0.43
40495,2025-09-16T15:09:34.967,-0.24,0.73,-0.43
40496,2025-09-16T15:09:34.977,-0.43,0.73,-0.43
40497,2025-09-16T15:09:34.988,-0.37,0.73,-0.43
40498,2025-09-16T15:09:34.997,-0.49,0.73,-0.43
40499,2025-09-16T15:09:35.007,-0.49,0.79,-0.43
