sample,timestamp,gyro_x,gyro_y,gyro_z
43500,2025-09-16T15:10:04.389,-0.31,0.92,-0.43
43501,2025-09-16T15:10:04.399,-0.37,0.92,-0.37
43502,2025-09-16T15:10:04.408,-0.37,0.85,-0.37
43503,2025-09-16T15:10:04.417,-0.37,0.85,-0.43
43504,2025-09-16T15:10:04.428,-0.37,0.85,-0.43
43505,2025-09-16T15:10:04.438,-0.43,0.85,-0.37
43506,2025-09-16T15:10:04.448,-0.43,0.85,-0.43
43507,2025-09-16T15:10:04.459,-0.37,0.85,-0.43
43508,2025-09-16T15:10:04.468,-0.37,0.85,-0.43
43509,2025-09-16T15:10:04.477,-0.37,0.85,-0.37
43510,2025-09-16T15:10:04.487,-0.31,0.85,-0.43
43511,2025-09-16T15:10:04.497,-0.24,0.85,-0.49
43512,2025-09-16T15:10:04.507,-0.24,0.85,-0.43
43513,2025-09-16T15:10:04.517,-0.31,0.85,-0.43
43514,2025-09-16T15:10:04.526,-0.37,0.85,-0.43
43515,2025-09-16T15:10:04.536,-0.37,0.79,-0.43
43516,2025-09-16T15:10:04.546,-0.43,0.79,-0.43
43517,2025-09-16T15:10:04.556,-0.43,0.79,-0.43
43518,2025-09-16T15:10:04.566,-0.49,0.79,-0.43
43519,2025-09-16T15:10:04.575,-0.43,0.79,-0.37
43520,2025-09-16T15:10:04.585,-0.49,0.85,-0.43
43521,2025-09-16T15:10:04.595,-0.37,0.85,-0.37
43522,2025-09-16T15:10:04.604,-0.37,0.85,-0.37
43523,2025-09-16T15:10:04.614,-0.31,0.85,-0.37
43524,2025-09-16T15:10:04.624,-0.31,0.85,-0.37
43525,2025-09-16T15:10:04.634,-0.24,0.85,-0.37
43526,2025-09-16T15:10:04.643,-0.24,0.85,-0.37
43527,2025-09-16T15:10:04.653,-0.24,0.79,-0.43
43528,2025-09-16T15:10:04.663,-0.24,0.79,-0.37
43529,2025-09-16T15:10:04.673,-0.24,0.79,-0.37
43530,2025-09-16T15:10:04.683,-0.24,0.85,-0.43
43531,2025-09-16T15:10:04.692,-0.24,0.85,-0.37
43532,2025-09-16T15:10:04.702,-0.31,0.85,-0.43
43533,2025-09-16T15:10:04.712,-0.31,0.85,-0.43
43534,2025-09-16T15:10:04.722,-0.37,0.85,-0.43
43535,2025-09-16T15:10:04.732,-0.43,0.79,-0.43
43536,2025-09-16T15:10:04.741,-0.55,0.79,-0.43
43537,2025-09-16T15:10:04.751,-0.55,0.79,-0.49
43538,2025-09-16T15:10:04.761,-0.61,0.79,-0.43
43539,2025-09-16T15:10:04.771,-0.61,0.79,-0.43
43540,2025-09-16T15:10:04.781,-0.55,0.79,-0.43
43541,2025-09-16T15:10:04.791,-0.55,0.85,-0.43
43542,2025-09-16T15:10:04.800,-0.49,0.85,-0.43
43543,2025-09-16T15:10:04.810,-0.43,0.85,-0.37
43544,2025-09-16T15:10:04.820,-0.37,0.85,-0.37
43545,2025-09-16T15:10:04.830,-0.31,0.85,-0.43
43546,2025-09-16T15:10:04.840,-0.24,0.85,-0.43
43547,2025-09-16T15:10:04.850,-0.18,0.79,-0.43
43548,2025-09-16T15:10:04.859,-0.18,0.79,-0.37
43549,2025-09-16T15:10:04.869,-0.18,0.73,-0.43
43550,2025-09-16T15:10:04.878,-0.24,0.73,-0.37
43551,2025-09-16T15:10:04.888,-0.31,0.73,-0.43
43552,2025-09-16T15:10:04.898,-0.37,0.73,-0.43
43553,2025-09-16T15:10:04.908,-0.43,0.79,-0.43
43554,2025-09-16T15:10:04.918,-0.49,0.79,-0.37
43555,2025-09-16T15:10:04.928,-0.49,0.85,-0.43
43556,2025-09-16T15:10:04.937,-0.55,0.85,-0.43
43557,2025-09-16T15:10:04.947,-0.55,0.92,-0.37
43558,2025-09-16T15:10:04.957,-0.55,0.85,-0.37
43559,2025-09-16T15:10:04.968,-0.43,0.85,-0.43
43560,2025-09-16T15:10:04.976,-0.37,0.85,-0.37
43561,2025-09-16T15:10:04.986,-0.31,0.79,-0.37
43562,2025-09-16T15:10:04.996,-0.24,0.79,-0.43
43563,2025-09-16T15:10:05.005,-0.24,0.73,-0.43
43564,2025-09-16T15:10:05.015,-0.18,0.73,-0.43
43565,2025-09-16T15:10:05.025,-0.12,0.79,-0.37
43566,2025-09-16T15:10:05.035,-0.12,0.85,-0.37
43567,2025-09-16T15:10:05.044,-0.18,0.85,-0.37
43568,2025-09-16T15:10:05.054,-0.24,0.85,-0.37
43569,2025-09-16T15:10:05.064,-0.31,0.85,-0.43
43570,2025-09-16T15:10:05.074,-0.43,0.85,-0.37
43571,2025-09-16T15:10:05.084,-0.43,0.79,-0.37
43572,2025-09-16T15:10:05.094,-0.49,0.79,-0.43
43573,2025-09-16T15:10:05.104,-0.55,0.85,-0.37
43574,2025-09-16T15:10:05.113,-0.61,0.79,-0.43
43575,2025-09-16T15:10:05.123,-0.61,0.79,-0.43
43576,2025-09-16T15:10:05.133,-0.49,0.79,-0.43
43577,2025-09-16T15:10:05.142,-0.37,0.79,-0.37
43578,2025-09-16T15:10:05.152,-0.31,0.85,-0.31
43579,2025-09-16T15:10:05.162,-0.24,0.85,-0.37
43580,2025-09-16T15:10:05.172,-0.24,0.92,-0.37
43581,2025-09-16T15:10:05.182,-0.18,0.92,-0.37
43582,2025-09-16T15:10:05.191,-0.12,0.79,-0.37
43583,2025-09-16T15:10:05.201,-0.12,0.79,-0.37
43584,2025-09-16T15:10:05.211,-0.12,0.79,-0.37
43585,2025-09-16T15:10:05.221,-0.18,0.79,-0.43
43586,2025-09-16T15:10:05.231,-0.31,0.73,-0.43
43587,2025-09-16T15:10:05.240,-0.37,0.79,-0.43
43588,2025-09-16T15:10:05.250,-0.43,0.73,-0.43
43589,2025-09-16T15:10:05.260,-0.49,0.79,-0.37
43590,2025-09-16T15:10:05.270,-0.55,0.79,-0.37
43591,2025-09-16T15:10:05.279,-0.61,0.85,-0.37
43592,2025-09-16T15:10:05.290,-0.61,0.85,-0.37
43593,2025-09-16T15:10:05.300,-0.55,0.85,-0.37
43594,2025-09-16T15:10:05.309,-0.37,0.92,-0.37
43595,2025-09-16T15:10:05.319,-0.37,0.85,-0.37
43596,2025-09-16T15:10:05.328,-0.37,0.79,-0.37
43597,2025-09-16T15:10:05.339,-0.24,0.79,-0.43
43598,2025-09-16T15:10:05.348,-0.18,0.79,-0.43
43599,2025-09-16T15:10:05.358,-0.12,0.73,-0.37
43600,2025-09-16T15:10:05.368,-0.12,0.73,-0.37
43601,2025-09-16T15:10:05.377,-0.12,0.79,-0.43
43602,2025-09-16T15:10:05.388,-0.18,0.79,-0.43
43603,2025-09-16T15:10:05.397,-0.24,0.85,-0.43
43604,2025-09-16T15:10:05.407,-0.31,0.85,-0.43
43605,2025-09-16T15:10:05.417,-0.37,0.85,-0.43
43606,2025-09-16T15:10:05.427,-0.43,0.85,-0.37
43607,2025-09-16T15:10:05.436,-0.61,0.85,-0.37
43608,2025-09-16T15:10:05.447,-0.61,0.85,-0.37
43609,2025-09-16T15:10:05.456,-0.61,0.79,-0.43
43610,2025-09-16T15:10:05.466,-0.49,0.79,-0.37
43611,2025-09-16T15:10:05.475,-0.49,0.79,-0.37
43612,2025-09-16T15:10:05.485,-0.37,0.79,-0.37
43613,2025-09-16T15:10:05.495,-0.31,0.79,-0.37
43614,2025-09-16T15:10:05.505,-0.31,0.79,-0.37
43615,2025-09-16T15:10:05.515,-0.18,0.79,-0.37
43616,2025-09-16T15:10:05.524,-0.12,0.85,-0.37
43617,2025-09-16T15:10:05.534,-0.12,0.85,-0.37
43618,2025-09-16T15:10:05.544,-0.12,0.85,-0.37
43619,2025-09-16T15:10:05.554,-0.18,0.79,-0.37
43620,2025-09-16T15:10:05.564,-0.24,0.85,-0.37
43621,2025-09-16T15:10:05.574,-0.31,0.79,-0.37
43622,2025-09-16T15:10:05.583,-0.43,0.79,-0.37
43623,2025-09-16T15:10:05.593,-0.43,0.79,-0.43
43624,2025-09-16T15:10:05.603,-0.55,0.79,-0.43
43625,2025-09-16T15:10:05.613,-0.61,0.79,-0.43
43626,2025-09-16T15:10:05.622,-0.55,0.79,-0.37
43627,2025-09-16T15:10:05.632,-0.55,0.79,-0.43
43628,2025-09-16T15:10:05.642,-0.43,0.92,-0.43
43629,2025-09-16T15:10:05.652,-0.37,0.85,-0.37
43630,2025-09-16T15:10:05.663,-0.37,0.85,-0.37
43631,2025-09-16T15:10:05.672,-0.31,0.85,-0.43
43632,2025-09-16T15:10:05.681,-0.24,0.79,-0.37
43633,2025-09-16T15:10:05.691,-0.18,0.79,-0.37
43634,2025-09-16T15:10:05.700,-0.18,0.79,-0.37
43635,2025-09-16T15:10:05.710,-0.18,0.79,-0.37
43636,2025-09-16T15:10:05.720,-0.18,0.79,-0.37
43637,2025-09-16T15:10:05.730,-0.24,0.79,-0.43
43638,2025-09-16T15:10:05.739,-0.31,0.85,-0.43
43639,2025-09-16T15:10:05.749,-0.37,0.85,-0.43
43640,2025-09-16T15:10:05.759,-0.37,0.85,-0.43
43641,2025-09-16T15:10:05.769,-0.49,0.85,-0.37
43642,2025-09-16T15:10:05.779,-0.49,0.85,-0.43
43643,2025-09-16T15:10:05.789,-0.49,0.85,-0.37
43644,2025-09-16T15:10:05.799,-0.49,0.85,-0.37
43645,2025-09-16T15:10:05.809,-0.49,0.85,-0.37
43646,2025-09-16T15:10:05.818,-0.43,0.79,-0.37
43647,2025-09-16T15:10:05.828,-0.37,0.73,-0.43
43648,2025-09-16T15:10:05.838,-0.37,0.73,-0.43
43649,2025-09-16T15:10:05.848,-0.31,0.79,-0.43
43650,2025-09-16T15:10:05.857,-0.24,0.79,-0.37
43651,2025-09-16T15:10:05.868,-0.18,0.79,-0.43
43652,2025-09-16T15:10:05.877,-0.18,0.79,-0.37
43653,2025-09-16T15:10:05.887,-0.18,0.85,-0.37
43654,2025-09-16T15:10:05.897,-0.24,0.85,-0.37
43655,2025-09-16T15:10:05.906,-0.31,0.85,-0.37
43656,2025-09-16T15:10:05.916,-0.37,0.85,-0.37
43657,2025-09-16T15:10:05.926,-0.37,0.79,-0.37
43658,2025-09-16T15:10:05.936,-0.43,0.79,-0.37
43659,2025-09-16T15:10:05.945,-0.37,0.79,-0.37
43660,2025-09-16T15:10:05.956,-0.49,0.79,-0.43
43661,2025-09-16T15:10:05.965,-0.49,0.79,-0.37
43662,2025-09-16T15:10:05.974,-0.49,0.79,-0.37
43663,2025-09-16T15:10:05.984,-0.49,0.79,-0.43
43664,2025-09-16T15:10:05.994,-0.43,0.85,-0.37
43665,2025-09-16T15:10:06.004,-0.37,0.85,-0.37
43666,2025-09-16T15:10:06.014,-0.24,0.85,-0.37
43667,2025-09-16T15:10:06.024,-0.24,0.85,-0.37
43668,2025-09-16T15:10:06.033,-0.24,0.85,-0.37
43669,2025-09-16T15:10:06.043,-0.24,0.85,-0.37
43670,2025-09-16T15:10:06.053,-0.18,0.79,-0.37
43671,2025-09-16T15:10:06.063,-0.24,0.79,-0.37
43672,2025-09-16T15:10:06.073,-0.31,0.79,-0.43
43673,2025-09-16T15:10:06.083,-0.24,0.73,-0.37
43674,2025-09-16T15:10:06.093,-0.37,0.79,-0.43
43675,2025-09-16T15:10:06.102,-0.37,0.85,-0.43
43676,2025-09-16T15:10:06.112,-0.43,0.85,-0.43
43677,2025-09-16T15:10:06.122,-0.43,0.79,-0.37
43678,2025-09-16T15:10:06.132,-0.49,0.85,-0.37
43679,2025-09-16T15:10:06.142,-0.49,0.85,-0.37
43680,2025-09-16T15:10:06.152,-0.43,0.79,-0.37
43681,2025-09-16T15:10:06.162,-0.43,0.79,-0.37
43682,2025-09-16T15:10:06.171,-0.37,0.79,-0.37
43683,2025-09-16T15:10:06.181,-0.37,0.79,-0.37
43684,2025-09-16T15:10:06.191,-0.31,0.79,-0.43
43685,2025-09-16T15:10:06.200,-0.24,0.79,-0.43
43686,2025-09-16T15:10:06.210,-0.24,0.79,-0.43
43687,2025-09-16T15:10:06.220,-0.18,0.79,-0.37
43688,2025-09-16T15:10:06.230,-0.18,0.85,-0.37
43689,2025-09-16T15:10:06.240,-0.18,0.85,-0.37
43690,2025-09-16T15:10:06.249,-0.24,0.85,-0.37
43691,2025-09-16T15:10:06.259,-0.31,0.79,-0.37
43692,2025-09-16T15:10:06.269,-0.37,0.85,-0.43
43693,2025-09-16T15:10:06.278,-0.37,0.79,-0.43
43694,2025-09-16T15:10:06.288,-0.43,0.79,-0.43
43695,2025-09-16T15:10:06.298,-0.43,0.79,-0.43
43696,2025-09-16T15:10:06.307,-0.49,0.79,-0.43
43697,2025-09-16T15:10:06.318,-0.49,0.79,-0.43
43698,2025-09-16T15:10:06.327,-0.49,0.85,-0.37
43699,2025-09-16T15:10:06.337,-0.43,0.79,-0.37
43700,2025-09-16T15:10:06.347,-0.31,0.85,-0.37
43701,2025-09-16T15:10:06.357,-0.24,0.85,-0.37
43702,2025-09-16T15:10:06.366,-0.24,0.85,-0.37
43703,2025-09-16T15:10:06.377,-0.31,0.85,-0.37
43704,2025-09-16T15:10:06.386,-0.24,0.79,-0.43
43705,2025-09-16T15:10:06.396,-0.24,0.79,-0.37
43706,2025-09-16T15:10:06.406,-0.18,0.79,-0.37
43707,2025-09-16T15:10:06.416,-0.24,0.79,-0.37
43708,2025-09-16T15:10:06.425,-0.31,0.79,-0.43
43709,2025-09-16T15:10:06.435,-0.31,0.79,-0.37
43710,2025-09-16T15:10:06.445,-0.37,0.79,-0.37
43711,2025-09-16T15:10:06.455,-0.37,0.85,-0.37
43712,2025-09-16T15:10:06.464,-0.43,0.85,-0.37
43713,2025-09-16T15:10:06.475,-0.49,0.85,-0.37
43714,2025-09-16T15:10:06.485,-0.49,0.79,-0.37
43715,2025-09-16T15:10:06.494,-0.49,0.85,-0.37
43716,2025-09-16T15:10:06.503,-0.43,0.79,-0.37
43717,2025-09-16T15:10:06.513,-0.37,0.85,-0.37
43718,2025-09-16T15:10:06.524,-0.37,0.85,-0.37
43719,2025-09-16T15:10:06.534,-0.31,0.79,-0.43
43720,2025-09-16T15:10:06.543,-0.31,0.79,-0.43
43721,2025-09-16T15:10:06.553,-0.18,0.79,-0.43
43722,2025-09-16T15:10:06.563,-0.18,0.79,-0.37
43723,2025-09-16T15:10:06.573,-0.24,0.79,-0.37
43724,2025-09-16T15:10:06.582,-0.24,0.85,-0.37
43725,2025-09-16T15:10:06.592,-0.31,0.85,-0.43
43726,2025-09-16T15:10:06.602,-0.31,0.85,-0.37
43727,2025-09-16T15:10:06.611,-0.37,0.85,-0.43
43728,2025-09-16T15:10:06.621,-0.37,0.85,-0.43
43729,2025-09-16T15:10:06.631,-0.43,0.85,-0.43
43730,2025-09-16T15:10:06.641,-0.49,0.85,-0.37
43731,2025-09-16T15:10:06.651,-0.49,0.79,-0.37
43732,2025-09-16T15:10:06.660,-0.49,0.79,-0.37
43733,2025-09-16T15:10:06.670,-0.43,0.79,-0.43
43734,2025-09-16T15:10:06.679,-0.43,0.73,-0.37
43735,2025-09-16T15:10:06.689,-0.37,0.79,-0.37
43736,2025-09-16T15:10:06.700,-0.31,0.85,-0.37
43737,2025-09-16T15:10:06.709,-0.24,0.85,-0.37
43738,2025-09-16T15:10:06.719,-0.24,0.85,-0.37
43739,2025-09-16T15:10:06.728,-0.24,0.85,-0.37
43740,2025-09-16T15:10:06.738,-0.24,0.85,-0.37
43741,2025-09-16T15:10:06.748,-0.24,0.85,-0.37
43742,2025-09-16T15:10:06.758,-0.24,0.79,-0.37
43743,2025-09-16T15:10:06.769,-0.31,0.79,-0.37
43744,2025-09-16T15:10:06.777,-0.37,0.79,-0.37
43745,2025-09-16T15:10:06.788,-0.43,0.79,-0.43
43746,2025-09-16T15:10:06.797,-0.43,0.79,-0.43
43747,2025-09-16T15:10:06.807,-0.49,0.79,-0.43
43748,2025-09-16T15:10:06.817,-0.49,0.85,-0.43
43749,2025-09-16T15:10:06.827,-0.49,0.85,-0.43
43750,2025-09-16T15:10:06.837,-0.37,0.85,-0.37
43751,2025-09-16T15:10:06.846,-0.37,0.85,-0.37
43752,2025-09-16T15:10:06.856,-0.37,0.79,-0.37
43753,2025-09-16T15:10:06.866,-0.37,0.85,-0.37
43754,2025-09-16T15:10:06.876,-0.31,0.79,-0.43
43755,2025-09-16T15:10:06.886,-0.31,0.79,-0.37
43756,2025-09-16T15:10:06.895,-0.24,0.79,-0.43
43757,2025-09-16T15:10:06.905,-0.24,0.79,-0.37
43758,2025-09-16T15:10:06.915,-0.24,0.79,-0.37
43759,2025-09-16T15:10:06.925,-0.31,0.85,-0.37
43760,2025-09-16T15:10:06.935,-0.31,0.85,-0.37
43761,2025-09-16T15:10:06.945,-0.31,0.79,-0.37
43762,2025-09-16T15:10:06.954,-0.37,0.85,-0.37
43763,2025-09-16T15:10:06.964,-0.37,0.85,-0.37
43764,2025-09-16T15:10:06.973,-0.43,0.85,-0.43
43765,2025-09-16T15:10:06.983,-0.43,0.79,-0.43
43766,2025-09-16T15:10:06.993,-0.49,0.79,-0.37
43767,2025-09-16T15:10:07.003,-0.43,0.79,-0.37
43768,2025-09-16T15:10:07.013,-0.43,0.79,-0.43
43769,2025-09-16T15:10:07.022,-0.43,0.79,-0.43
43770,2025-09-16T15:10:07.032,-0.37,0.79,-0.43
43771,2025-09-16T15:10:07.042,-0.31,0.85,-0.43
43772,2025-09-16T15:10:07.053,-0.31,0.85,-0.37
43773,2025-09-16T15:10:07.061,-0.24,0.85,-0.37
43774,2025-09-16T15:10:07.072,-0.24,0.85,-0.37
43775,2025-09-16T15:10:07.082,-0.24,0.85,-0.37
43776,2025-09-16T15:10:07.092,-0.24,0.85,-0.37
43777,2025-09-16T15:10:07.101,-0.31,0.79,-0.37
43778,2025-09-16T15:10:07.111,-0.37,0.79,-0.37
43779,2025-09-16T15:10:07.126,-0.37,0.79,-0.43
43780,2025-09-16T15:10:07.130,-0.43,0.79,-0.37
43781,2025-09-16T15:10:07.140,-0.43,0.79,-0.43
43782,2025-09-16T15:10:07.150,-0.43,0.85,-0.43
43783,2025-09-16T15:10:07.160,-0.43,0.85,-0.37
43784,2025-09-16T15:10:07.170,-0.43,0.85,-0.37
43785,2025-09-16T15:10:07.179,-0.43,0.85,-0.37
43786,2025-09-16T15:10:07.189,-0.37,0.85,-0.37
43787,2025-09-16T15:10:07.198,-0.37,0.85,-0.37
43788,2025-09-16T15:10:07.208,-0.31,0.85,-0.37
43789,2025-09-16T15:10:07.218,-0.31,0.79,-0.43
43790,2025-09-16T15:10:07.228,-0.31,0.79,-0.43
43791,2025-09-16T15:10:07.238,-0.24,0.73,-0.43
43792,2025-09-16T15:10:07.247,-0.31,0.79,-0.37
43793,2025-09-16T15:10:07.257,-0.31,0.79,-0.37
43794,2025-09-16T15:10:07.267,-0.31,0.79,-0.37
43795,2025-09-16T15:10:07.277,-0.37,0.85,-0.37
43796,2025-09-16T15:10:07.287,-0.31,0.85,-0.37
43797,2025-09-16T15:10:07.297,-0.37,0.85,-0.37
43798,2025-09-16T15:10:07.307,-0.37,0.79,-0.37
43799,2025-09-16T15:10:07.317,-0.43,0.85,-0.37
43800,2025-09-16T15:10:07.326,-0.49,0.85,-0.37
43801,2025-09-16T15:10:07.336,-0.43,0.85,-0.37
43802,2025-09-16T15:10:07.346,-0.43,0.79,-0.37
43803,2025-09-16T15:10:07.356,-0.43,0.79,-0.37
43804,2025-09-16T15:10:07.365,-0.37,0.79,-0.37
43805,2025-09-16T15:10:07.374,-0.37,0.79,-0.37
43806,2025-09-16T15:10:07.385,-0.31,0.79,-0.37
43807,2025-09-16T15:10:07.394,-0.31,0.79,-0.37
43808,2025-09-16T15:10:07.404,-0.31,0.85,-0.37
43809,2025-09-16T15:10:07.414,-0.24,0.79,-0.37
43810,2025-09-16T15:10:07.424,-0.24,0.85,-0.37
43811,2025-09-16T15:10:07.434,-0.24,0.85,-0.43
43812,2025-09-16T15:10:07.444,-0.31,0.79,-0.37
43813,2025-09-16T15:10:07.454,-0.37,0.79,-0.37
43814,2025-09-16T15:10:07.464,-0.37,0.85,-0.37
43815,2025-09-16T15:10:07.473,-0.37,0.79,-0.43
43816,2025-09-16T15:10:07.483,-0.37,0.79,-0.43
43817,2025-09-16T15:10:07.493,-0.43,0.79,-0.43
43818,2025-09-16T15:10:07.511,-0.43,0.79,-0.37
43819,2025-09-16T15:10:07.512,-0.43,0.79,-0.43
43820,2025-09-16T15:10:07.522,-0.43,0.79,-0.43
43821,2025-09-16T15:10:07.531,-0.37,0.85,-0.37
43822,2025-09-16T15:10:07.541,-0.37,0.85,-0.37
43823,2025-09-16T15:10:07.551,-0.31,0.85,-0.43
43824,2025-09-16T15:10:07.561,-0.31,0.85,-0.37
43825,2025-09-16T15:10:07.571,-0.31,0.79,-0.37
43826,2025-09-16T15:10:07.581,-0.31,0.79,-0.43
43827,2025-09-16T15:10:07.591,-0.24,0.79,-0.37
43828,2025-09-16T15:10:07.600,-0.24,0.79,-0.37
43829,2025-09-16T15:10:07.610,-0.31,0.79,-0.43
43830,2025-09-16T15:10:07.620,-0.37,0.79,-0.37
43831,2025-09-16T15:10:07.630,-0.37,0.79,-0.43
43832,2025-09-16T15:10:07.640,-0.37,0.85,-0.43
43833,2025-09-16T15:10:07.650,-0.37,0.85,-0.37
43834,2025-09-16T15:10:07.659,-0.43,0.85,-0.37
43835,2025-09-16T15:10:07.669,-0.49,0.85,-0.37
43836,2025-09-16T15:10:07.678,-0.43,0.85,-0.37
43837,2025-09-16T15:10:07.688,-0.43,0.85,-0.43
43838,2025-09-16T15:10:07.698,-0.37,0.79,-0.43
43839,2025-09-16T15:10:07.707,-0.37,0.79,-0.43
43840,2025-09-16T15:10:07.717,-0.37,0.79,-0.43
43841,2025-09-16T15:10:07.727,-0.31,0.79,-0.37
43842,2025-09-16T15:10:07.737,-0.31,0.79,-0.43
43843,2025-09-16T15:10:07.747,-0.31,0.79,-0.43
43844,2025-09-16T15:10:07.757,-0.31,0.79,-0.37
43845,2025-09-16T15:10:07.766,-0.31,0.85,-0.37
43846,2025-09-16T15:10:07.776,-0.31,0.85,-0.37
43847,2025-09-16T15:10:07.786,-0.31,0.85,-0.37
43848,2025-09-16T15:10:07.796,-0.37,0.85,-0.37
43849,2025-09-16T15:10:07.806,-0.37,0.85,-0.37
43850,2025-09-16T15:10:07.816,-0.31,0.79,-0.43
43851,2025-09-16T15:10:07.826,-0.37,0.79,-0.43
43852,2025-09-16T15:10:07.835,-0.43,0.79,-0.37
43853,2025-09-16T15:10:07.845,-0.43,0.79,-0.37
43854,2025-09-16T15:10:07.855,-0.43,0.79,-0.37
43855,2025-09-16T15:10:07.864,-0.37,0.79,-0.37
43856,2025-09-16T15:10:07.875,-0.43,0.79,-0.43
43857,2025-09-16T15:10:07.884,-0.31,0.79,-0.37
43858,2025-09-16T15:10:07.894,-0.31,0.85,-0.37
43859,2025-09-16T15:10:07.903,-0.31,0.85,-0.43
43860,2025-09-16T15:10:07.913,-0.31,0.85,-0.37
43861,2025-09-16T15:10:07.923,-0.31,0.79,-0.37
43862,2025-09-16T15:10:07.933,-0.24,0.79,-0.37
43863,2025-09-16T15:10:07.943,-0.31,0.79,-0.37
43864,2025-09-16T15:10:07.952,-0.31,0.79,-0.43
43865,2025-09-16T15:10:07.963,-0.37,0.79,-0.43
43866,2025-09-16T15:10:07.972,-0.37,0.85,-0.37
43867,2025-09-16T15:10:07.982,-0.37,0.85,-0.37
43868,2025-09-16T15:10:07.992,-0.43,0.85,-0.43
43869,2025-09-16T15:10:08.001,-0.37,0.85,-0.43
43870,2025-09-16T15:10:08.011,-0.37,0.85,-0.37
43871,2025-09-16T15:10:08.021,-0.37,0.85,-0.43
43872,2025-09-16T15:10:08.031,-0.43,0.79,-0.37
43873,2025-09-16T15:10:08.041,-0.37,0.85,-0.37
43874,2025-09-16T15:10:08.050,-0.37,0.85,-0.43
43875,2025-09-16T15:10:08.060,-0.31,0.79,-0.37
43876,2025-09-16T15:10:08.070,-0.31,0.79,-0.43
43877,2025-09-16T15:10:08.080,-0.37,0.79,-0.37
43878,2025-09-16T15:10:08.089,-0.31,0.79,-0.37
43879,2025-09-16T15:10:08.099,-0.31,0.79,-0.37
43880,2025-09-16T15:10:08.109,-0.31,0.79,-0.37
43881,2025-09-16T15:10:08.119,-0.31,0.85,-0.37
43882,2025-09-16T15:10:08.129,-0.31,0.85,-0.37
43883,2025-09-16T15:10:08.139,-0.37,0.85,-0.37
43884,2025-09-16T15:10:08.148,-0.37,0.85,-0.43
43885,2025-09-16T15:10:08.158,-0.43,0.79,-0.37
43886,2025-09-16T15:10:08.168,-0.37,0.85,-0.43
43887,2025-09-16T15:10:08.178,-0.37,0.85,-0.43
43888,2025-09-16T15:10:08.188,-0.43,0.79,-0.43
43889,2025-09-16T15:10:08.198,-0.43,0.79,-0.37
43890,2025-09-16T15:10:08.208,-0.43,0.79,-0.43
43891,2025-09-16T15:10:08.217,-0.31,0.79,-0.43
43892,2025-09-16T15:10:08.227,-0.31,0.85,-0.43
43893,2025-09-16T15:10:08.237,-0.31,0.85,-0.43
43894,2025-09-16T15:10:08.247,-0.31,0.85,-0.43
43895,2025-09-16T15:10:08.257,-0.31,0.85,-0.37
43896,2025-09-16T15:10:08.266,-0.31,0.85,-0.37
43897,2025-09-16T15:10:08.276,-0.31,0.85,-0.37
43898,2025-09-16T15:10:08.285,-0.31,0.79,-0.37
43899,2025-09-16T15:10:08.295,-0.31,0.79,-0.43
43900,2025-09-16T15:10:08.305,-0.37,0.79,-0.43
43901,2025-09-16T15:10:08.315,-0.37,0.79,-0.37
43902,2025-09-16T15:10:08.324,-0.37,0.79,-0.43
43903,2025-09-16T15:10:08.335,-0.37,0.79,-0.37
43904,2025-09-16T15:10:08.344,-0.37,0.79,-0.37
43905,2025-09-16T15:10:08.354,-0.37,0.85,-0.37
43906,2025-09-16T15:10:08.364,-0.37,0.85,-0.37
43907,2025-09-16T15:10:08.373,-0.37,0.85,-0.37
43908,2025-09-16T15:10:08.383,-0.37,0.85,-0.37
43909,2025-09-16T15:10:08.393,-0.37,0.79,-0.37
43910,2025-09-16T15:10:08.403,-0.37,0.79,-0.37
43911,2025-09-16T15:10:08.413,-0.37,0.79,-0.37
43912,2025-09-16T15:10:08.422,-0.31,0.79,-0.37
43913,2025-09-16T15:10:08.432,-0.31,0.79,-0.37
43914,2025-09-16T15:10:08.442,-0.31,0.79,-0.37
43915,2025-09-16T15:10:08.452,-0.31,0.85,-0.37
43916,2025-09-16T15:10:08.461,-0.31,0.85,-0.43
43917,2025-09-16T15:10:08.471,-0.31,0.79,-0.37
43918,2025-09-16T15:10:08.481,-0.37,0.85,-0.37
43919,2025-09-16T15:10:08.491,-0.43,0.85,-0.37
43920,2025-09-16T15:10:08.500,-0.43,0.85,-0.43
43921,2025-09-16T15:10:08.510,-0.37,0.79,-0.37
43922,2025-09-16T15:10:08.520,-0.37,0.79,-0.37
43923,2025-09-16T15:10:08.530,-0.43,0.79,-0.43
43924,2025-09-16T15:10:08.540,-0.43,0.79,-0.43
43925,2025-09-16T15:10:08.549,-0.43,0.79,-0.43
43926,2025-09-16T15:10:08.559,-0.37,0.79,-0.37
43927,2025-09-16T15:10:08.569,-0.37,0.79,-0.37
43928,2025-09-16T15:10:08.579,-0.31,0.79,-0.43
43929,2025-09-16T15:10:08.589,-0.37,0.85,-0.37
43930,2025-09-16T15:10:08.599,-0.31,0.85,-0.43
43931,2025-09-16T15:10:08.609,-0.24,0.85,-0.43
43932,2025-09-16T15:10:08.618,-0.31,0.85,-0.37
43933,2025-09-16T15:10:08.628,-0.31,0.79,-0.37
43934,2025-09-16T15:10:08.638,-0.37,0.79,-0.37
43935,2025-09-16T15:10:08.648,-0.37,0.79,-0.37
43936,2025-09-16T15:10:08.658,-0.37,0.79,-0.37
43937,2025-09-16T15:10:08.667,-0.37,0.79,-0.37
43938,2025-09-16T15:10:08.677,-0.43,0.79,-0.43
43939,2025-09-16T15:10:08.686,-0.43,0.79,-0.37
43940,2025-09-16T15:10:08.697,-0.43,0.79,-0.37
43941,2025-09-16T15:10:08.706,-0.43,0.79,-0.43
43942,2025-09-16T15:10:08.716,-0.43,0.85,-0.43
43943,2025-09-16T15:10:08.726,-0.37,0.85,-0.37
43944,2025-09-16T15:10:08.735,-0.31,0.85,-0.37
43945,2025-09-16T15:10:08.745,-0.37,0.85,-0.37
43946,2025-09-16T15:10:08.755,-0.37,0.85,-0.37
43947,2025-09-16T15:10:08.765,-0.31,0.79,-0.43
43948,2025-09-16T15:10:08.774,-0.24,0.79,-0.37
43949,2025-09-16T15:10:08.785,-0.31,0.85,-0.43
43950,2025-09-16T15:10:08.795,-0.24,0.79,-0.43
43951,2025-09-16T15:10:08.805,-0.37,0.79,-0.37
43952,2025-09-16T15:10:08.815,-0.37,0.79,-0.37
43953,2025-09-16T15:10:08.824,-0.37,0.79,-0.37
43954,2025-09-16T15:10:08.834,-0.37,0.85,-0.37
43955,2025-09-16T15:10:08.844,-0.37,0.79,-0.37
43956,2025-09-16T15:10:08.854,-0.37,0.85,-0.37
43957,2025-09-16T15:10:08.863,-0.43,0.85,-0.37
43958,2025-09-16T15:10:08.873,-0.37,0.85,-0.37
43959,2025-09-16T15:10:08.883,-0.43,0.79,-0.37
43960,2025-09-16T15:10:08.892,-0.43,0.79,-0.43
43961,2025-09-16T15:10:08.902,-0.37,0.85,-0.37
43962,2025-09-16T15:10:08.912,-0.37,0.79,-0.37
43963,2025-09-16T15:10:08.922,-0.31,0.79,-0.37
43964,2025-09-16T15:10:08.932,-0.31,0.79,-0.37
43965,2025-09-16T15:10:08.942,-0.24,0.79,-0.37
43966,2025-09-16T15:10:08.951,-0.31,0.79,-0.37
43967,2025-09-16T15:10:08.961,-0.31,0.85,-0.43
43968,2025-09-16T15:10:08.971,-0.31,0.85,-0.37
43969,2025-09-16T15:10:08.981,-0.37,0.79,-0.37
43970,2025-09-16T15:10:08.991,-0.37,0.79,-0.37
43971,2025-09-16T15:10:09.001,-0.37,0.79,-0.37
43972,2025-09-16T15:10:09.010,-0.37,0.79,-0.37
43973,2025-09-16T15:10:09.020,-0.37,0.79,-0.43
43974,2025-09-16T15:10:09.030,-0.43,0.79,-0.43
43975,2025-09-16T15:10:09.040,-0.43,0.85,-0.43
43976,2025-09-16T15:10:09.049,-0.37,0.79,-0.37
43977,2025-09-16T15:10:09.059,-0.37,0.85,-0.37
43978,2025-09-16T15:10:09.069,-0.37,0.85,-0.37
43979,2025-09-16T15:10:09.078,-0.31,0.85,-0.37
43980,2025-09-16T15:10:09.088,-0.31,0.85,-0.37
43981,2025-09-16T15:10:09.098,-0.31,0.85,-0.37
43982,2025-09-16T15:10:09.108,-0.31,0.85,-0.43
43983,2025-09-16T15:10:09.117,-0.31,0.79,-0.37
43984,2025-09-16T15:10:09.127,-0.31,0.79,-0.37
43985,2025-09-16T15:10:09.136,-0.31,0.79,-0.37
43986,2025-09-16T15:10:09.147,-0.31,0.79,-0.37
43987,2025-09-16T15:10:09.156,-0.37,0.85,-0.37
43988,2025-09-16T15:10:09.166,-0.37,0.85,-0.43
43989,2025-09-16T15:10:09.176,-0.37,0.79,-0.43
43990,2025-09-16T15:10:09.186,-0.43,0.79,-0.43
43991,2025-09-16T15:10:09.196,-0.43,0.79,-0.37
43992,2025-09-16T15:10:09.206,-0.37,0.85,-0.43
43993,2025-09-16T15:10:09.216,-0.37,0.79,-0.37
43994,2025-09-16T15:10:09.226,-0.37,0.79,-0.37
43995,2025-09-16T15:10:09.236,-0.37,0.79,-0.43
43996,2025-09-16T15:10:09.245,-0.37,0.79,-0.43
43997,2025-09-16T15:10:09.255,-0.31,0.79,-0.43
43998,2025-09-16T15:10:09.265,-0.31,0.79,-0.37
43999,2025-09-16T15:10:09.274,-0.31,0.79,-0.37
