sample,timestamp,gyro_x,gyro_y,gyro_z
24000,2025-09-16T15:06:53.475,-0.24,0.85,-0.37
24001,2025-09-16T15:06:53.485,-0.24,0.85,-0.37
24002,2025-09-16T15:06:53.495,-0.37,0.85,-0.43
24003,2025-09-16T15:06:53.504,-0.37,0.85,-0.37
24004,2025-09-16T15:06:53.514,-0.37,0.79,-0.43
24005,2025-09-16T15:06:53.524,-0.49,0.79,-0.43
24006,2025-09-16T15:06:53.534,-0.49,0.85,-0.43
24007,2025-09-16T15:06:53.543,-0.43,0.85,-0.43
24008,2025-09-16T15:06:53.553,-0.31,0.79,-0.37
24009,2025-09-16T15:06:53.563,0.0,0.79,-0.37
24010,2025-09-16T15:06:53.572,0.0,0.73,-0.37
24011,2025-09-16T15:06:53.583,-0.12,0.79,-0.43
24012,2025-09-16T15:06:53.592,-0.24,0.73,-0.37
24013,2025-09-16T15:06:53.602,-0.49,0.79,-0.43
24014,2025-09-16T15:06:53.612,-0.85,0.85,-0.43
24015,2025-09-16T15:06:53.622,-0.55,0.79,-0.43
24016,2025-09-16T15:06:53.632,-0.55,0.79,-0.37
24017,2025-09-16T15:06:53.641,-0.37,0.85,-0.37
24018,2025-09-16T15:06:53.652,-0.18,0.85,-0.37
24019,2025-09-16T15:06:53.661,-0.06,0.85,-0.37
24020,2025-09-16T15:06:53.671,-0.24,0.85,-0.37
24021,2025-09-16T15:06:53.681,-0.24,0.85,-0.43
24022,2025-09-16T15:06:53.691,-0.37,0.85,-0.43
24023,2025-09-16T15:06:53.700,-0.31,0.79,-0.37
24024,2025-09-16T15:06:53.710,-0.43,0.85,-0.37
24025,2025-09-16T15:06:53.720,-0.49,0.85,-0.43
24026,2025-09-16T15:06:53.730,-0.55,0.85,-0.37
24027,2025-09-16T15:06:53.740,-0.49,0.85,-0.37
24028,2025-09-16T15:06:53.749,-0.37,0.85,-0.37
24029,2025-09-16T15:06:53.759,-0.18,0.79,-0.37
24030,2025-09-16T15:06:53.769,-0.12,0.79,-0.37
24031,2025-09-16T15:06:53.779,-0.12,0.79,-0.37
24032,2025-09-16T15:06:53.788,-0.18,0.79,-0.43
24033,2025-09-16T15:06:53.798,-0.31,0.79,-0.43
24034,2025-09-16T15:06:53.808,-0.49,0.79,-0.43
24035,2025-09-16T15:06:53.818,-0.61,0.79,-0.43
24036,2025-09-16T15:06:53.828,-0.61,0.79,-0.43
24037,2025-09-16T15:06:53.838,-0.55,0.79,-0.37
24038,2025-09-16T15:06:53.847,-0.37,0.79,-0.43
24039,2025-09-16T15:06:53.857,-0.24,0.79,-0.37
24040,2025-09-16T15:06:53.867,-0.18,0.79,-0.43
24041,2025-09-16T15:06:53.876,-0.24,0.79,-0.37
24042,2025-09-16T15:06:53.886,-0.24,0.79,-0.37
24043,2025-09-16T15:06:53.896,-0.37,0.79,-0.37
24044,2025-09-16T15:06:53.906,-0.43,0.79,-0.43
24045,2025-09-16T15:06:53.916,-0.49,0.85,-0.43
24046,2025-09-16T15:06:53.925,-0.37,0.79,-0.37
24047,2025-09-16T15:06:53.935,-0.31,0.79,-0.43
24048,2025-09-16T15:06:53.945,-0.31,0.79,-0.37
24049,2025-09-16T15:06:53.955,-0.37,0.79,-0.37
24050,2025-09-16T15:06:53.965,-0.31,0.79,-0.37
24051,2025-09-16T15:06:53.975,-0.24,0.79,-0.37
24052,2025-09-16T15:06:53.984,-0.31,0.85,-0.37
24053,2025-09-16T15:06:53.995,-0.37,0.79,-0.37
24054,2025-09-16T15:06:54.004,-0.37,0.79,-0.37
24055,2025-09-16T15:06:54.014,-0.37,0.79,-0.37
24056,2025-09-16T15:06:54.023,-0.43,0.85,-0.37
24057,2025-09-16T15:06:54.033,-0.43,0.85,-0.43
24058,2025-09-16T15:06:54.043,-0.37,0.79,-0.43
24059,2025-09-16T15:06:54.053,-0.24,0.79,-0.43
24060,2025-09-16T15:06:54.062,-0.31,0.79,-0.43
24061,2025-09-16T15:06:54.072,-0.37,0.85,-0.43
24062,2025-09-16T15:06:54.082,-0.37,0.85,-0.49
24063,2025-09-16T15:06:54.091,-0.49,0.85,-0.43
24064,2025-09-16T15:06:54.101,-0.37,0.79,-0.49
24065,2025-09-16T15:06:54.111,-0.31,0.79,-0.43
24066,2025-09-16T15:06:54.121,-0.37,0.85,-0.43
24067,2025-09-16T15:06:54.131,-0.31,0.79,-0.43
24068,2025-09-16T15:06:54.141,-0.24,0.79,-0.37
24069,2025-09-16T15:06:54.150,-0.24,0.79,-0.37
24070,2025-09-16T15:06:54.160,-0.37,0.79,-0.37
24071,2025-09-16T15:06:54.170,-0.31,0.73,-0.37
24072,2025-09-16T15:06:54.180,-0.37,0.73,-0.37
24073,2025-09-16T15:06:54.189,-0.43,0.79,-0.37
24074,2025-09-16T15:06:54.199,-0.37,0.79,-0.37
24075,2025-09-16T15:06:54.209,-0.31,0.79,-0.31
24076,2025-09-16T15:06:54.219,-0.31,0.79,-0.31
24077,2025-09-16T15:06:54.229,-0.24,0.79,-0.31
24078,2025-09-16T15:06:54.238,-0.24,0.79,-0.31
24079,2025-09-16T15:06:54.248,-0.24,0.73,-0.37
24080,2025-09-16T15:06:54.258,-0.24,0.73,-0.37
24081,2025-09-16T15:06:54.268,-0.37,0.73,-0.37
24082,2025-09-16T15:06:54.278,-0.31,0.79,-0.37
24083,2025-09-16T15:06:54.287,-0.43,0.79,-0.43
24084,2025-09-16T15:06:54.297,-0.37,0.79,-0.43
24085,2025-09-16T15:06:54.307,-0.43,0.85,-0.43
24086,2025-09-16T15:06:54.317,-0.37,0.85,-0.43
24087,2025-09-16T15:06:54.327,-0.37,0.85,-0.43
24088,2025-09-16T15:06:54.337,-0.49,0.85,-0.43
24089,2025-09-16T15:06:54.346,-0.37,0.85,-0.43
24090,2025-09-16T15:06:54.357,-0.31,0.92,-0.43
24091,2025-09-16T15:06:54.367,-0.31,0.85,-0.43
24092,2025-09-16T15:06:54.376,-0.37,0.85,-0.43
24093,2025-09-16T15:06:54.386,-0.31,0.85,-0.43
24094,2025-09-16T15:06:54.396,-0.24,0.79,-0.37
24095,2025-09-16T15:06:54.406,-0.18,0.79,-0.37
24096,2025-09-16T15:06:54.416,-0.31,0.79,-0.37
24097,2025-09-16T15:06:54.425,-0.31,0.79,-0.37
24098,2025-09-16T15:06:54.435,-0.37,0.79,-0.37
24099,2025-09-16T15:06:54.445,-0.37,0.79,-0.37
24100,2025-09-16T15:06:54.455,-0.43,0.79,-0.37
24101,2025-09-16T15:06:54.465,-0.43,0.85,-0.37
24102,2025-09-16T15:06:54.474,-0.37,0.79,-0.37
24103,2025-09-16T15:06:54.485,-0.37,0.79,-0.37
24104,2025-09-16T15:06:54.492,-0.37,0.79,-0.37
24105,2025-09-16T15:06:54.503,-0.31,0.79,-0.37
24106,2025-09-16T15:06:54.513,-0.31,0.79,-0.37
24107,2025-09-16T15:06:54.523,-0.31,0.79,-0.43
24108,2025-09-16T15:06:54.532,-0.31,0.79,-0.37
24109,2025-09-16T15:06:54.542,-0.43,0.79,-0.43
24110,2025-09-16T15:06:54.553,-0.49,0.85,-0.43
24111,2025-09-16T15:06:54.562,-0.31,0.79,-0.43
24112,2025-09-16T15:06:54.572,-0.31,0.79,-0.43
24113,2025-09-16T15:06:54.581,-0.37,0.79,-0.43
24114,2025-09-16T15:06:54.591,-0.31,0.79,-0.37
24115,2025-09-16T15:06:54.602,-0.31,0.79,-0.37
24116,2025-09-16T15:06:54.611,-0.37,0.73,-0.37
24117,2025-09-16T15:06:54.621,-0.37,0.73,-0.37
24118,2025-09-16T15:06:54.631,-0.37,0.79,-0.37
24119,2025-09-16T15:06:54.640,-0.31,0.73,-0.31
24120,2025-09-16T15:06:54.650,-0.31,0.79,-0.31
24121,2025-09-16T15:06:54.660,-0.31,0.79,-0.37
24122,2025-09-16T15:06:54.670,-0.24,0.79,-0.31
24123,2025-09-16T15:06:54.680,-0.37,0.79,-0.37
24124,2025-09-16T15:06:54.689,-0.37,0.79,-0.37
24125,2025-09-16T15:06:54.699,-0.43,0.79,-0.37
24126,2025-09-16T15:06:54.709,-0.43,0.85,-0.43
24127,2025-09-16T15:06:54.718,-0.43,0.85,-0.43
24128,2025-09-16T15:06:54.728,-0.43,0.79,-0.43
24129,2025-09-16T15:06:54.738,-0.37,0.79,-0.43
24130,2025-09-16T15:06:54.749,-0.31,0.85,-0.43
24131,2025-09-16T15:06:54.757,-0.31,0.79,-0.43
24132,2025-09-16T15:06:54.767,-0.31,0.79,-0.43
24133,2025-09-16T15:06:54.777,-0.37,0.85,-0.43
24134,2025-09-16T15:06:54.786,-0.37,0.79,-0.43
24135,2025-09-16T15:06:54.796,-0.31,0.79,-0.43
24136,2025-09-16T15:06:54.807,-0.37,0.79,-0.37
24137,2025-09-16T15:06:54.816,-0.31,0.79,-0.37
24138,2025-09-16T15:06:54.826,-0.24,0.79,-0.31
24139,2025-09-16T15:06:54.836,-0.31,0.79,-0.31
24140,2025-09-16T15:06:54.845,-0.37,0.79,-0.31
24141,2025-09-16T15:06:54.856,-0.37,0.79,-0.37
24142,2025-09-16T15:06:54.865,-0.37,0.79,-0.37
24143,2025-09-16T15:06:54.875,-0.43,0.85,-0.37
24144,2025-09-16T15:06:54.885,-0.43,0.85,-0.37
24145,2025-09-16T15:06:54.895,-0.43,0.79,-0.43
24146,2025-09-16T15:06:54.904,-0.37,0.79,-0.43
24147,2025-09-16T15:06:54.914,-0.37,0.85,-0.49
24148,2025-09-16T15:06:54.924,-0.24,0.79,-0.49
24149,2025-09-16T15:06:54.934,-0.31,0.79,-0.43
24150,2025-09-16T15:06:54.944,-0.37,0.79,-0.43
24151,2025-09-16T15:06:54.953,-0.31,0.79,-0.43
24152,2025-09-16T15:06:54.964,-0.31,0.79,-0.37
24153,2025-09-16T15:06:54.973,-0.31,0.85,-0.37
24154,2025-09-16T15:06:54.983,-0.37,0.79,-0.37
24155,2025-09-16T15:06:54.992,-0.31,0.79,-0.37
24156,2025-09-16T15:06:55.002,-0.31,0.79,-0.31
24157,2025-09-16T15:06:55.012,-0.31,0.85,-0.31
24158,2025-09-16T15:06:55.022,-0.24,0.79,-0.31
24159,2025-09-16T15:06:55.032,-0.24,0.79,-0.31
24160,2025-09-16T15:06:55.041,-0.43,0.85,-0.31
24161,2025-09-16T15:06:55.052,-0.55,0.85,-0.37
24162,2025-09-16T15:06:55.061,-0.37,0.85,-0.37
24163,2025-09-16T15:06:55.072,-0.31,0.79,-0.43
24164,2025-09-16T15:06:55.081,-0.37,0.79,-0.43
24165,2025-09-16T15:06:55.091,-0.24,0.79,-0.43
24166,2025-09-16T15:06:55.101,-0.31,0.79,-0.43
24167,2025-09-16T15:06:55.111,-0.37,0.79,-0.49
24168,2025-09-16T15:06:55.120,-0.24,0.79,-0.43
24169,2025-09-16T15:06:55.130,-0.31,0.79,-0.43
24170,2025-09-16T15:06:55.140,-0.49,0.85,-0.43
24171,2025-09-16T15:06:55.150,-0.31,0.79,-0.37
24172,2025-09-16T15:06:55.159,-0.31,0.85,-0.37
24173,2025-09-16T15:06:55.169,-0.43,0.85,-0.37
24174,2025-09-16T15:06:55.179,-0.31,0.85,-0.31
24175,2025-09-16T15:06:55.188,-0.24,0.79,-0.37
24176,2025-09-16T15:06:55.198,-0.37,0.79,-0.37
24177,2025-09-16T15:06:55.209,-0.31,0.79,-0.37
24178,2025-09-16T15:06:55.218,-0.31,0.79,-0.37
24179,2025-09-16T15:06:55.228,-0.43,0.79,-0.37
24180,2025-09-16T15:06:55.237,-0.43,0.79,-0.37
24181,2025-09-16T15:06:55.246,-0.31,0.79,-0.43
24182,2025-09-16T15:06:55.257,-0.37,0.79,-0.43
24183,2025-09-16T15:06:55.266,-0.37,0.79,-0.43
24184,2025-09-16T15:06:55.276,-0.31,0.79,-0.43
24185,2025-09-16T15:06:55.286,-0.31,0.79,-0.43
24186,2025-09-16T15:06:55.296,-0.37,0.79,-0.43
24187,2025-09-16T15:06:55.306,-0.37,0.85,-0.43
24188,2025-09-16T15:06:55.315,-0.24,0.79,-0.37
24189,2025-09-16T15:06:55.325,-0.31,0.79,-0.37
24190,2025-09-16T15:06:55.335,-0.31,0.79,-0.37
24191,2025-09-16T15:06:55.345,-0.24,0.79,-0.37
24192,2025-09-16T15:06:55.355,-0.31,0.73,-0.37
24193,2025-09-16T15:06:55.365,-0.37,0.79,-0.37
24194,2025-09-16T15:06:55.375,-0.31,0.85,-0.37
24195,2025-09-16T15:06:55.385,-0.37,0.85,-0.37
24196,2025-09-16T15:06:55.394,-0.43,0.79,-0.43
24197,2025-09-16T15:06:55.404,-0.49,0.79,-0.43
24198,2025-09-16T15:06:55.414,-0.43,0.79,-0.37
24199,2025-09-16T15:06:55.423,-0.31,0.79,-0.43
24200,2025-09-16T15:06:55.433,-0.24,0.79,-0.43
24201,2025-09-16T15:06:55.443,-0.31,0.79,-0.43
24202,2025-09-16T15:06:55.453,-0.31,0.79,-0.43
24203,2025-09-16T15:06:55.462,-0.31,0.79,-0.43
24204,2025-09-16T15:06:55.473,-0.43,0.79,-0.43
24205,2025-09-16T15:06:55.482,-0.49,0.79,-0.37
24206,2025-09-16T15:06:55.492,-0.37,0.85,-0.37
24207,2025-09-16T15:06:55.501,-0.43,0.79,-0.43
24208,2025-09-16T15:06:55.511,-0.31,0.79,-0.37
24209,2025-09-16T15:06:55.522,-0.12,0.79,-0.37
24210,2025-09-16T15:06:55.531,-0.18,0.79,-0.37
24211,2025-09-16T15:06:55.540,-0.24,0.79,-0.37
24212,2025-09-16T15:06:55.552,-0.24,0.79,-0.37
24213,2025-09-16T15:06:55.561,-0.43,0.79,-0.37
24214,2025-09-16T15:06:55.571,-0.55,0.85,-0.43
24215,2025-09-16T15:06:55.580,-0.43,0.79,-0.43
24216,2025-09-16T15:06:55.590,-0.49,0.85,-0.43
24217,2025-09-16T15:06:55.600,-0.49,0.85,-0.43
24218,2025-09-16T15:06:55.610,-0.24,0.85,-0.43
24219,2025-09-16T15:06:55.620,-0.18,0.79,-0.43
24220,2025-09-16T15:06:55.629,-0.37,0.79,-0.43
24221,2025-09-16T15:06:55.639,-0.24,0.79,-0.43
24222,2025-09-16T15:06:55.648,-0.37,0.79,-0.43
24223,2025-09-16T15:06:55.658,-0.37,0.79,-0.43
24224,2025-09-16T15:06:55.668,-0.37,0.79,-0.43
24225,2025-09-16T15:06:55.678,-0.43,0.79,-0.37
24226,2025-09-16T15:06:55.688,-0.43,0.79,-0.37
24227,2025-09-16T15:06:55.697,-0.24,0.79,-0.37
24228,2025-09-16T15:06:55.707,-0.24,0.79,-0.37
24229,2025-09-16T15:06:55.716,-0.37,0.79,-0.37
24230,2025-09-16T15:06:55.727,-0.24,0.79,-0.37
24231,2025-09-16T15:06:55.737,-0.31,0.79,-0.31
24232,2025-09-16T15:06:55.747,-0.37,0.79,-0.37
24233,2025-09-16T15:06:55.756,-0.37,0.79,-0.37
24234,2025-09-16T15:06:55.766,-0.43,0.79,-0.37
24235,2025-09-16T15:06:55.776,-0.49,0.79,-0.43
24236,2025-09-16T15:06:55.785,-0.31,0.79,-0.37
24237,2025-09-16T15:06:55.795,-0.37,0.79,-0.43
24238,2025-09-16T15:06:55.805,-0.37,0.85,-0.43
24239,2025-09-16T15:06:55.815,-0.24,0.79,-0.43
24240,2025-09-16T15:06:55.825,-0.24,0.79,-0.37
24241,2025-09-16T15:06:55.835,-0.37,0.79,-0.43
24242,2025-09-16T15:06:55.844,-0.31,0.79,-0.37
24243,2025-09-16T15:06:55.854,-0.37,0.79,-0.37
24244,2025-09-16T15:06:55.864,-0.43,0.85,-0.37
24245,2025-09-16T15:06:55.873,-0.24,0.79,-0.31
24246,2025-09-16T15:06:55.884,-0.31,0.85,-0.31
24247,2025-09-16T15:06:55.893,-0.31,0.85,-0.37
24248,2025-09-16T15:06:55.903,-0.24,0.79,-0.37
24249,2025-09-16T15:06:55.913,-0.37,0.85,-0.37
24250,2025-09-16T15:06:55.922,-0.37,0.85,-0.37
24251,2025-09-16T15:06:55.933,-0.24,0.79,-0.37
24252,2025-09-16T15:06:55.942,-0.43,0.85,-0.43
24253,2025-09-16T15:06:55.953,-0.49,0.79,-0.43
24254,2025-09-16T15:06:55.962,-0.24,0.79,-0.43
24255,2025-09-16T15:06:55.972,-0.37,0.79,-0.43
24256,2025-09-16T15:06:55.982,-0.43,0.85,-0.43
24257,2025-09-16T15:06:55.991,-0.24,0.79,-0.43
24258,2025-09-16T15:06:56.001,-0.31,0.79,-0.43
24259,2025-09-16T15:06:56.011,-0.49,0.85,-0.37
24260,2025-09-16T15:06:56.021,-0.24,0.79,-0.43
24261,2025-09-16T15:06:56.031,-0.31,0.85,-0.37
24262,2025-09-16T15:06:56.040,-0.49,0.85,-0.37
24263,2025-09-16T15:06:56.050,-0.18,0.79,-0.37
24264,2025-09-16T15:06:56.060,-0.31,0.79,-0.37
24265,2025-09-16T15:06:56.070,-0.55,0.85,-0.37
24266,2025-09-16T15:06:56.079,-0.18,0.79,-0.37
24267,2025-09-16T15:06:56.089,-0.24,0.79,-0.43
24268,2025-09-16T15:06:56.099,-0.55,0.85,-0.37
24269,2025-09-16T15:06:56.108,-0.31,0.79,-0.43
24270,2025-09-16T15:06:56.118,-0.24,0.79,-0.43
24271,2025-09-16T15:06:56.128,-0.55,0.79,-0.43
24272,2025-09-16T15:06:56.138,-0.37,0.79,-0.37
24273,2025-09-16T15:06:56.148,-0.18,0.79,-0.37
24274,2025-09-16T15:06:56.158,-0.49,0.79,-0.37
24275,2025-09-16T15:06:56.168,-0.43,0.79,-0.37
24276,2025-09-16T15:06:56.177,-0.24,0.79,-0.37
24277,2025-09-16T15:06:56.187,-0.49,0.85,-0.37
24278,2025-09-16T15:06:56.197,-0.43,0.85,-0.37
24279,2025-09-16T15:06:56.207,-0.12,0.79,-0.37
24280,2025-09-16T15:06:56.216,-0.37,0.79,-0.37
24281,2025-09-16T15:06:56.226,-0.31,0.79,-0.37
24282,2025-09-16T15:06:56.236,-0.12,0.79,-0.37
24283,2025-09-16T15:06:56.245,-0.31,0.79,-0.31
24284,2025-09-16T15:06:56.256,-0.37,0.85,-0.31
24285,2025-09-16T15:06:56.265,-0.31,0.79,-0.37
24286,2025-09-16T15:06:56.275,-0.37,0.79,-0.37
24287,2025-09-16T15:06:56.285,-0.49,0.85,-0.43
24288,2025-09-16T15:06:56.295,-0.37,0.85,-0.43
24289,2025-09-16T15:06:56.305,-0.31,0.79,-0.43
24290,2025-09-16T15:06:56.314,-0.37,0.79,-0.43
24291,2025-09-16T15:06:56.324,-0.37,0.85,-0.43
24292,2025-09-16T15:06:56.334,-0.18,0.73,-0.43
24293,2025-09-16T15:06:56.344,-0.43,0.79,-0.43
24294,2025-09-16T15:06:56.353,-0.31,0.79,-0.43
24295,2025-09-16T15:06:56.363,-0.31,0.79,-0.43
24296,2025-09-16T15:06:56.373,-0.43,0.79,-0.37
24297,2025-09-16T15:06:56.383,-0.43,0.79,-0.37
24298,2025-09-16T15:06:56.393,-0.31,0.79,-0.37
24299,2025-09-16T15:06:56.403,-0.24,0.79,-0.31
24300,2025-09-16T15:06:56.412,-0.12,0.79,-0.31
24301,2025-09-16T15:06:56.422,-0.12,0.73,-0.31
24302,2025-09-16T15:06:56.432,-0.31,0.79,-0.31
24303,2025-09-16T15:06:56.441,-0.37,0.79,-0.31
24304,2025-09-16T15:06:56.451,-0.55,0.85,-0.37
24305,2025-09-16T15:06:56.461,-0.67,0.85,-0.43
24306,2025-09-16T15:06:56.471,-0.61,0.85,-0.43
24307,2025-09-16T15:06:56.480,-0.49,0.85,-0.49
24308,2025-09-16T15:06:56.490,-0.43,0.79,-0.49
24309,2025-09-16T15:06:56.500,-0.31,0.79,-0.43
24310,2025-09-16T15:06:56.510,-0.18,0.79,-0.43
24311,2025-09-16T15:06:56.520,-0.18,0.79,-0.43
24312,2025-09-16T15:06:56.529,-0.18,0.79,-0.43
24313,2025-09-16T15:06:56.539,-0.18,0.79,-0.37
24314,2025-09-16T15:06:56.549,-0.18,0.79,-0.37
24315,2025-09-16T15:06:56.558,-0.18,0.79,-0.37
24316,2025-09-16T15:06:56.569,-0.43,0.85,-0.37
24317,2025-09-16T15:06:56.578,-0.43,0.85,-0.31
24318,2025-09-16T15:06:56.588,-0.31,0.85,-0.31
24319,2025-09-16T15:06:56.598,-0.49,0.85,-0.37
24320,2025-09-16T15:06:56.608,-0.49,0.79,-0.37
24321,2025-09-16T15:06:56.617,-0.37,0.79,-0.37
24322,2025-09-16T15:06:56.627,-0.49,0.79,-0.37
24323,2025-09-16T15:06:56.637,-0.49,0.79,-0.43
24324,2025-09-16T15:06:56.647,-0.31,0.73,-0.43
24325,2025-09-16T15:06:56.657,-0.43,0.79,-0.43
24326,2025-09-16T15:06:56.667,-0.43,0.79,-0.43
24327,2025-09-16T15:06:56.676,-0.18,0.79,-0.43
24328,2025-09-16T15:06:56.686,-0.24,0.79,-0.37
24329,2025-09-16T15:06:56.696,-0.31,0.85,-0.43
24330,2025-09-16T15:06:56.706,-0.24,0.79,-0.37
24331,2025-09-16T15:06:56.715,-0.31,0.79,-0.37
24332,2025-09-16T15:06:56.725,-0.43,0.85,-0.37
24333,2025-09-16T15:06:56.735,-0.37,0.79,-0.37
24334,2025-09-16T15:06:56.745,-0.31,0.73,-0.31
24335,2025-09-16T15:06:56.755,-0.37,0.79,-0.31
24336,2025-09-16T15:06:56.765,-0.43,0.79,-0.37
24337,2025-09-16T15:06:56.775,-0.37,0.79,-0.37
24338,2025-09-16T15:06:56.785,-0.43,0.79,-0.43
24339,2025-09-16T15:06:56.795,-0.37,0.79,-0.43
24340,2025-09-16T15:06:56.804,-0.31,0.79,-0.43
24341,2025-09-16T15:06:56.814,-0.37,0.79,-0.43
24342,2025-09-16T15:06:56.823,-0.37,0.85,-0.43
24343,2025-09-16T15:06:56.833,-0.31,0.79,-0.43
24344,2025-09-16T15:06:56.843,-0.37,0.79,-0.43
24345,2025-09-16T15:06:56.853,-0.31,0.85,-0.37
24346,2025-09-16T15:06:56.863,-0.31,0.85,-0.37
24347,2025-09-16T15:06:56.873,-0.31,0.85,-0.37
24348,2025-09-16T15:06:56.883,-0.31,0.79,-0.37
24349,2025-09-16T15:06:56.893,-0.31,0.79,-0.37
24350,2025-09-16T15:06:56.902,-0.24,0.79,-0.37
24351,2025-09-16T15:06:56.912,-0.31,0.85,-0.37
24352,2025-09-16T15:06:56.922,-0.43,0.79,-0.37
24353,2025-09-16T15:06:56.931,-0.43,0.79,-0.43
24354,2025-09-16T15:06:56.941,-0.37,0.79,-0.43
24355,2025-09-16T15:06:56.951,-0.37,0.79,-0.37
24356,2025-09-16T15:06:56.960,-0.31,0.79,-0.37
24357,2025-09-16T15:06:56.970,-0.24,0.79,-0.37
24358,2025-09-16T15:06:56.980,-0.24,0.79,-0.43
24359,2025-09-16T15:06:56.990,-0.31,0.73,-0.37
24360,2025-09-16T15:06:57.000,-0.31,0.79,-0.37
24361,2025-09-16T15:06:57.009,-0.37,0.79,-0.37
24362,2025-09-16T15:06:57.019,-0.43,0.79,-0.43
24363,2025-09-16T15:06:57.029,-0.43,0.79,-0.37
24364,2025-09-16T15:06:57.038,-0.37,0.85,-0.37
24365,2025-09-16T15:06:57.048,-0.37,0.79,-0.37
24366,2025-09-16T15:06:57.059,-0.31,0.79,-0.37
24367,2025-09-16T15:06:57.069,-0.37,0.85,-0.37
24368,2025-09-16T15:06:57.079,-0.24,0.85,-0.43
24369,2025-09-16T15:06:57.088,-0.43,0.85,-0.43
24370,2025-09-16T15:06:57.098,-0.43,0.79,-0.43
24371,2025-09-16T15:06:57.108,-0.43,0.79,-0.43
24372,2025-09-16T15:06:57.118,-0.24,0.79,-0.43
24373,2025-09-16T15:06:57.128,-0.43,0.79,-0.43
24374,2025-09-16T15:06:57.137,-0.37,0.79,-0.43
24375,2025-09-16T15:06:57.147,-0.18,0.79,-0.43
24376,2025-09-16T15:06:57.157,-0.31,0.73,-0.37
24377,2025-09-16T15:06:57.166,-0.31,0.73,-0.37
24378,2025-09-16T15:06:57.177,-0.31,0.79,-0.31
24379,2025-09-16T15:06:57.186,-0.37,0.79,-0.37
24380,2025-09-16T15:06:57.196,-0.43,0.79,-0.31
24381,2025-09-16T15:06:57.206,-0.37,0.85,-0.31
24382,2025-09-16T15:06:57.214,-0.43,0.79,-0.31
24383,2025-09-16T15:06:57.225,-0.43,0.79,-0.31
24384,2025-09-16T15:06:57.235,-0.24,0.79,-0.37
24385,2025-09-16T15:06:57.245,-0.31,0.79,-0.37
24386,2025-09-16T15:06:57.255,-0.37,0.79,-0.37
24387,2025-09-16T15:06:57.265,-0.18,0.79,-0.37
24388,2025-09-16T15:06:57.274,-0.24,0.79,-0.43
24389,2025-09-16T15:06:57.284,-0.43,0.79,-0.43
24390,2025-09-16T15:06:57.294,-0.37,0.79,-0.43
24391,2025-09-16T15:06:57.304,-0.43,0.85,-0.43
24392,2025-09-16T15:06:57.313,-0.61,0.85,-0.49
24393,2025-09-16T15:06:57.322,-0.49,0.85,-0.43
24394,2025-09-16T15:06:57.332,-0.24,0.79,-0.37
24395,2025-09-16T15:06:57.342,-0.31,0.79,-0.37
24396,2025-09-16T15:06:57.352,-0.31,0.79,-0.37
24397,2025-09-16T15:06:57.362,-0.06,0.79,-0.37
24398,2025-09-16T15:06:57.372,-0.24,0.79,-0.37
24399,2025-09-16T15:06:57.382,-0.37,0.79,-0.37
24400,2025-09-16T15:06:57.392,-0.31,0.79,-0.37
24401,2025-09-16T15:06:57.401,-0.43,0.79,-0.37
24402,2025-09-16T15:06:57.411,-0.55,0.85,-0.37
24403,2025-09-16T15:06:57.421,-0.31,0.79,-0.37
24404,2025-09-16T15:06:57.431,-0.31,0.79,-0.37
24405,2025-09-16T15:06:57.441,-0.43,0.85,-0.37
24406,2025-09-16T15:06:57.450,-0.31,0.79,-0.37
24407,2025-09-16T15:06:57.460,-0.24,0.79,-0.37
24408,2025-09-16T15:06:57.470,-0.43,0.85,-0.43
24409,2025-09-16T15:06:57.479,-0.37,0.79,-0.43
24410,2025-09-16T15:06:57.489,-0.24,0.79,-0.43
24411,2025-09-16T15:06:57.499,-0.43,0.85,-0.43
24412,2025-09-16T15:06:57.509,-0.37,0.79,-0.43
24413,2025-09-16T15:06:57.519,-0.24,0.79,-0.37
24414,2025-09-16T15:06:57.528,-0.31,0.79,-0.37
24415,2025-09-16T15:06:57.538,-0.43,0.79,-0.37
24416,2025-09-16T15:06:57.548,-0.24,0.79,-0.37
24417,2025-09-16T15:06:57.557,-0.37,0.79,-0.43
24418,2025-09-16T15:06:57.567,-0.43,0.79,-0.43
24419,2025-09-16T15:06:57.577,-0.24,0.79,-0.37
24420,2025-09-16T15:06:57.587,-0.24,0.79,-0.43
24421,2025-09-16T15:06:57.597,-0.43,0.79,-0.43
24422,2025-09-16T15:06:57.606,-0.43,0.79,-0.37
24423,2025-09-16T15:06:57.616,-0.24,0.79,-0.37
24424,2025-09-16T15:06:57.626,-0.37,0.85,-0.37
24425,2025-09-16T15:06:57.636,-0.43,0.79,-0.43
24426,2025-09-16T15:06:57.646,-0.31,0.79,-0.37
24427,2025-09-16T15:06:57.656,-0.37,0.79,-0.43
24428,2025-09-16T15:06:57.665,-0.55,0.85,-0.37
24429,2025-09-16T15:06:57.675,-0.24,0.79,-0.37
24430,2025-09-16T15:06:57.685,-0.31,0.85,-0.37
24431,2025-09-16T15:06:57.695,-0.43,0.85,-0.37
24432,2025-09-16T15:06:57.705,-0.24,0.79,-0.37
24433,2025-09-16T15:06:57.715,-0.12,0.79,-0.37
24434,2025-09-16T15:06:57.724,-0.37,0.79,-0.37
24435,2025-09-16T15:06:57.734,-0.37,0.79,-0.37
24436,2025-09-16T15:06:57.744,-0.24,0.79,-0.37
24437,2025-09-16T15:06:57.754,-0.43,0.79,-0.37
24438,2025-09-16T15:06:57.763,-0.43,0.79,-0.43
24439,2025-09-16T15:06:57.773,-0.31,0.79,-0.37
24440,2025-09-16T15:06:57.783,-0.49,0.79,-0.43
24441,2025-09-16T15:06:57.792,-0.43,0.79,-0.43
24442,2025-09-16T15:06:57.802,-0.31,0.85,-0.43
24443,2025-09-16T15:06:57.812,-0.37,0.85,-0.43
24444,2025-09-16T15:06:57.822,-0.43,0.79,-0.37
24445,2025-09-16T15:06:57.832,-0.31,0.79,-0.37
24446,2025-09-16T15:06:57.841,-0.31,0.79,-0.43
24447,2025-09-16T15:06:57.851,-0.43,0.79,-0.37
24448,2025-09-16T15:06:57.861,-0.31,0.79,-0.37
24449,2025-09-16T15:06:57.870,-0.31,0.79,-0.37
24450,2025-09-16T15:06:57.881,-0.43,0.79,-0.37
24451,2025-09-16T15:06:57.890,-0.31,0.85,-0.37
24452,2025-09-16T15:06:57.900,-0.18,0.85,-0.37
24453,2025-09-16T15:06:57.910,-0.37,0.79,-0.37
24454,2025-09-16T15:06:57.920,-0.37,0.85,-0.37
24455,2025-09-16T15:06:57.929,-0.31,0.85,-0.31
24456,2025-09-16T15:06:57.939,-0.43,0.79,-0.37
24457,2025-09-16T15:06:57.949,-0.49,0.79,-0.43
24458,2025-09-16T15:06:57.958,-0.31,0.79,-0.37
24459,2025-09-16T15:06:57.968,-0.37,0.79,-0.37
24460,2025-09-16T15:06:57.978,-0.37,0.79,-0.43
24461,2025-09-16T15:06:57.988,-0.24,0.79,-0.37
24462,2025-09-16T15:06:57.998,-0.24,0.79,-0.37
24463,2025-09-16T15:06:58.007,-0.31,0.79,-0.43
24464,2025-09-16T15:06:58.017,-0.37,0.79,-0.37
24465,2025-09-16T15:06:58.027,-0.37,0.79,-0.37
24466,2025-09-16T15:06:58.037,-0.43,0.79,-0.37
24467,2025-09-16T15:06:58.047,-0.37,0.79,-0.43
24468,2025-09-16T15:06:58.057,-0.43,0.85,-0.43
24469,2025-09-16T15:06:58.067,-0.31,0.79,-0.37
24470,2025-09-16T15:06:58.076,-0.37,0.79,-0.37
24471,2025-09-16T15:06:58.087,-0.31,0.79,-0.37
24472,2025-09-16T15:06:58.096,-0.31,0.79,-0.37
24473,2025-09-16T15:06:58.107,-0.37,0.85,-0.43
24474,2025-09-16T15:06:58.116,-0.43,0.85,-0.43
24475,2025-09-16T15:06:58.126,-0.37,0.79,-0.37
24476,2025-09-16T15:06:58.135,-0.31,0.79,-0.37
24477,2025-09-16T15:06:58.145,-0.24,0.79,-0.43
24478,2025-09-16T15:06:58.155,-0.31,0.79,-0.37
24479,2025-09-16T15:06:58.164,-0.31,0.85,-0.37
24480,2025-09-16T15:06:58.175,-0.37,0.85,-0.37
24481,2025-09-16T15:06:58.184,-0.43,0.79,-0.37
24482,2025-09-16T15:06:58.193,-0.37,0.79,-0.37
24483,2025-09-16T15:06:58.203,-0.37,0.79,-0.37
24484,2025-09-16T15:06:58.213,-0.43,0.79,-0.43
24485,2025-09-16T15:06:58.223,-0.37,0.79,-0.37
24486,2025-09-16T15:06:58.233,-0.24,0.79,-0.37
24487,2025-09-16T15:06:58.242,-0.31,0.73,-0.43
24488,2025-09-16T15:06:58.253,-0.31,0.79,-0.43
24489,2025-09-16T15:06:58.263,-0.31,0.73,-0.37
24490,2025-09-16T15:06:58.273,-0.37,0.73,-0.37
24491,2025-09-16T15:06:58.283,-0.37,0.79,-0.37
24492,2025-09-16T15:06:58.292,-0.37,0.85,-0.43
24493,2025-09-16T15:06:58.302,-0.43,0.85,-0.43
24494,2025-09-16T15:06:58.312,-0.43,0.85,-0.37
24495,2025-09-16T15:06:58.322,-0.37,0.85,-0.43
24496,2025-09-16T15:06:58.331,-0.37,0.79,-0.43
24497,2025-09-16T15:06:58.341,-0.31,0.79,-0.43
24498,2025-09-16T15:06:58.351,-0.24,0.79,-0.43
24499,2025-09-16T15:06:58.360,-0.24,0.79,-0.43
